Folder: Basalt_Carbonate_Baselines/Glass FTIR Baseline Share With Sarah 2023 (part 2)

File: Dans_Data_raw_cleaned.csv
Wavenumber,WD23MI02,WD33MI03,SH55MI02,SH54MI11,SH63MI02,WD71AMI01,SH63MI10,SH01MI11,SH01MI05,SH63MI39,WD23MI03A,FI38MI01C,SH01MI12B,CV09EMI05,FI38MI01B,SH01MI12A,OK14MI07,OK14MI12,AK96MI13,OK14MI01,WD35MI04A,SH63MI43,OK14MI06C,Terry3MI04A,FI45MI02,AK96MI08,WD70MI03,Terry3MI03,JFL19BMI11,WD12MI04A,FI45MI05,WD70MI01A,WD35MI02,WD07MI01A,FI45MI06,OK14MI08,WD70MI01B,WD12MI06,WD35MI01,OK14MI09,WD07MI01B,SH63MI53,FI38MI05A,SH58MI01,SH63MI34,SH01MI21,OK17MI05A,SH63MI22,FI45MI04A,SH63MI27,JFL30AMI12,VS73MI02,SH63MI25,SH63MI31,SH63MI24
451.2686,0.820063,1.91683,0.561094,0.354758,1.38062,0.958119,0.501156,1.43457,0.6397086,0.558277,2.26386,0.330773,1.17948,0.5859743,0.331403,0.817392,2.981056,0.643463,0.6487644,3.47991,0.816372,0.593019,0.374355,0.2711214,1.05229,0.425731,0.673407,0.641772,0.5702524,0.799922,0.441858,0.795417,1.74099,0.59531,1.05507,3.25979,0.699576,0.813621,1.27972,0.976636,0.863601,2.41748,0.833221,0.9123945,0.9456461,0.474767,0.4801752,0.3688718,2.45084,0.658986,0.828558,0.7018526,0.53032,0.511019,0.929539
865.8958,3.20666,3.16073,2.034669,1.88817,2.10824,1.86127,1.88934,2.6587,1.68863,2.20585,2.99064,2.02625,2.098683,2.21564,1.980003,2.08315,3.960776,2.20386,2.422477,1.74234,2.473164,2.854483,1.906995,1.84765,2.47375,2.810314,2.19795,2.17024,1.82859,2.228685,3.03989,2.33938,3.81707,1.99772,2.74493,1.83142,2.46937,2.32646,3.11311,1.713896,2.41403,2.284432,2.30951,2.364988,2.451965,1.94378,1.94125,1.74717,3.64085,2.078719,2.504909,2.3225,2.034358,2.09722,2.23971
1280.523,1.106632,0.782958,0.854139,0.641426,1.559364,1.341222,0.7885663,0.886329,0.57479,0.971604,2.1018,0.487381,1.15469,0.595264,0.497593,1.039035,1.644664,0.793392,0.6971186,0.863884,0.798097,0.7994925,0.387703,0.480764,0.853571,0.62728,0.6113341,0.898146,0.8896118,0.9134973,0.775288,0.74208,0.870038,0.802346,0.850097,0.92496,0.7392697,1.037809,0.9202189,1.065225,0.916337,0.6151095,0.7595773,1.10925,1.072997,0.961324,0.540816,0.5599085,0.856237,0.739878,0.9379074,0.8893099,0.8323381,1.00637,0.9074682
1695.15,0.508492,0.397376,0.3273568,0.2206323,0.55338,0.705199,0.3141691,0.531683,0.2902,0.371885,1.21748,0.158734,0.5986535,0.2708613,0.185951,0.548031,0.721255,0.3363501,0.226516,0.3832793,0.44432,0.283669,0.18677,0.114161,0.486691,0.2355036,0.330101,0.404604,0.404294,0.476664,0.4048089,0.414528,0.495629,0.3919883,0.4857637,0.364846,0.4192804,0.493272,0.548954,0.473016,0.4548106,0.337277,0.398038,0.54213,0.471848,0.365903,0.25922,0.192694,0.4843356,0.314244,0.458382,0.375725,0.298399,0.3600418,0.376529
2109.777,0.2995325,0.2401227,0.1934164,0.106125,0.373188,0.329653,0.1893231,0.299837,0.1665434,0.211518,0.7261,0.0144039,0.381317,0.1134151,-0.04276292,0.3323511,0.3839262,0.1699327,0.0877607,0.257777,0.289542,0.1598474,0.117618,-0.0118524,0.270969,0.1079437,0.188272,0.210441,0.263699,0.2733493,0.2418977,0.247025,0.312141,0.192231,0.285973,0.3094562,0.242238,0.265605,0.3538219,0.2702961,0.273315,0.180389,0.253078,0.351631,0.226961,0.169187,0.1220864,0.0900918,0.309867,0.181168,0.2537012,0.268929,0.156293,0.197205,0.1761748
2524.405,0.282383,0.237897,0.174011,0.100532,0.344831,0.308371,0.173165,0.283349,0.1651868,0.189748,0.755978,-0.0569233,0.374647,0.110089,-0.001329651,0.299038,0.3336212,0.1542809,0.0634586,0.2875902,0.3000584,0.134297,0.1202242,-0.007663456,0.279157,0.0924457,0.1849067,0.1904,0.219709,0.2637124,0.2224722,0.257093,0.3484823,0.180515,0.3055004,0.30383,0.2488676,0.266232,0.3606,0.2614085,0.2780965,0.124558,0.2499537,0.317927,0.238645,0.150199,0.118898,0.0818236,0.3293003,0.1618007,0.247965,0.308248,0.139835,0.157694,0.1266236
2939.032,0.55085,0.540533,0.3553485,0.143437,0.361614,0.949492,0.340822,0.699803,0.364155,0.238861,1.7952,0.263725,0.740821,0.358295,0.288327,0.715348,0.704627,0.331174,0.146762,0.50845,0.6463757,0.136584,0.208387,0.173659,0.747751,0.1452232,0.479576,0.419684,0.241017,0.689209,0.5999905,0.6255937,0.7003969,0.494406,0.7672473,0.416434,0.648424,0.639429,0.8050891,0.489229,0.590995,0.1332936,0.506148,0.5894393,0.583291,0.244135,0.2843864,0.107384,0.7318974,0.262692,0.614965,0.5241226,0.23239,0.164394,0.343258
3353.659,1.19716,1.23539,0.997658,0.206781,0.485173,2.17346,0.815182,1.740056,0.883618,0.319054,3.285001,1.08836,1.62903,1.03,0.9814461,1.67568,1.72075,0.7751776,0.3999616,1.08413,1.48123,0.1538132,0.413427,0.605039,1.9086,0.3370257,1.20192,1.00431,0.318569,1.78079,1.48006,1.58892,1.41942,1.26913,1.85209,0.843554,1.75333,1.60618,1.91647,1.05321,1.31907,0.197178,1.140686,1.28264,1.404,0.4296989,0.633613,0.144613,1.655805,0.4768932,1.59155,1.10954,0.4431571,0.2009481,0.853309
3768.286,0.199779,0.119657,0.203304,0.180107,0.386021,0.1850006,0.162816,0.252607,0.138623,0.238702,0.536263,-0.119942,0.328721,0.0606372,-0.0708322,0.2173357,0.342971,0.147628,0.0551107,0.188824,0.236979,0.120325,0.101319,-0.02960198,0.1817108,0.0735224,0.131829,0.147805,0.241628,0.191881,0.1440861,0.21558,0.3377961,0.0869673,0.1854885,0.2688288,0.2225932,0.211993,0.3362062,0.245275,0.222921,0.109166,0.174499,0.302174,0.17337,0.216767,0.1277762,0.103182,0.168805,0.171935,0.182173,0.547561,0.154886,0.194054,0.134024
4182.913,0.176291,0.116265,0.2062952,0.2264042,0.409978,0.1296365,0.1680778,0.255358,0.138808,0.272527,0.4835967,-0.130766,0.317543,0.0425867,-0.133639,0.2132822,0.345889,0.152486,0.0521824,0.198327,0.2280185,0.1340565,0.09739751,-0.0332043,0.166299,0.07411799,0.110177,0.148377,0.275098,0.191158,0.1373465,0.214794,0.340612,0.0759935,0.1705513,0.251192,0.225503,0.209059,0.342911,0.2529251,0.2114195,0.1381449,0.1597885,0.301701,0.159785,0.219856,0.117717,0.116954,0.1390203,0.185959,0.1644065,0.665782,0.172838,0.209588,0.163145
4597.541,0.184495,0.151787,0.234926,0.2854434,0.443042,0.139763,0.1996065,0.276725,0.156766,0.320272,0.520262,-0.084374,0.3397901,0.0481238,-0.08867357,0.232585,0.368044,0.182517,0.0641586,0.207648,0.244283,0.164933,0.105885,-0.0167558,0.1918776,0.08574813,0.132754,0.177532,0.301504,0.217458,0.15237,0.2455,0.387111,0.0989212,0.189292,0.2263986,0.2670646,0.248487,0.3826339,0.2939667,0.232263,0.169467,0.173837,0.33761,0.2082908,0.249754,0.1334022,0.141995,0.1569045,0.220155,0.1745135,0.80515,0.21225,0.244934,0.1807746
5012.167,0.205723,0.199097,0.301763,0.343807,0.498362,0.163282,0.228471,0.2989718,0.177727,0.358862,0.582214,-0.0753967,0.372864,0.0561436,-0.0556432,0.2712319,0.3871068,0.214805,0.08047545,0.219304,0.2664464,0.2006261,0.1160306,0.001499401,0.222277,0.0972693,0.154728,0.208137,0.3072684,0.2592788,0.175915,0.28304,0.4389429,0.1280093,0.2183577,0.261354,0.312069,0.291153,0.434608,0.3386477,0.260251,0.19516,0.1976854,0.3730778,0.259695,0.2926651,0.158762,0.163953,0.1877528,0.256297,0.189826,0.948128,0.249494,0.266666,0.22161
5426.795,0.221023,0.2279483,0.3527868,0.388263,0.541924,0.170611,0.2451782,0.312771,0.188971,0.377866,0.608613,-0.071556,0.3877594,0.0606726,-0.08125217,0.281603,0.3987935,0.2359608,0.09158063,0.2390046,0.2722493,0.2248501,0.1206149,0.009247512,0.234685,0.100861,0.1594665,0.227233,0.298131,0.2759457,0.187107,0.306442,0.463498,0.142594,0.230187,0.311587,0.338027,0.3179251,0.467171,0.3624752,0.275902,0.19817,0.2147559,0.400891,0.275287,0.323544,0.176737,0.177585,0.212629,0.274187,0.198426,1.09183,0.2681662,0.285786,0.247694
[...]
6256.049,0.236569,0.215403,0.397736,0.442142,0.550363,0.160946,0.249499,0.324032,0.196113,0.3908353,0.612584,-0.0509036,0.390749,0.0560828,-0.06036372,0.2848,0.4478724,0.2457455,0.09353078,0.2309365,0.2546876,0.243483,0.117757,0.003703158,0.238208,0.1060018,0.1630719,0.227784,0.2835515,0.2923263,0.185521,0.3277995,0.4757615,0.1459233,0.2299217,0.264844,0.3722961,0.335831,0.4991608,0.3735219,0.281175,0.191817,0.233742,0.410271,0.2572738,0.337691,0.176138,0.182419,0.249945,0.280688,0.197875,1.33278,0.2740727,0.295805,0.244007
6670.676,0.257524,0.223245,0.443038,0.474099,0.578663,0.172853,0.262937,0.340586,0.204541,0.4162618,0.647594,-0.0446568,0.409636,0.0611936,-0.0412423,0.3028538,0.4936995,0.258696,0.1046361,0.2443607,0.2645832,0.256575,0.12526,0.0173128,0.2511955,0.107186,0.1714915,0.238142,0.3074158,0.315584,0.196392,0.3491958,0.5017888,0.166825,0.2479089,0.3029505,0.3989927,0.359585,0.52889,0.4112155,0.303094,0.1942096,0.264896,0.4363297,0.280014,0.353563,0.1850742,0.196523,0.275831,0.3005409,0.205266,1.42687,0.297949,0.310131,0.2597536
7085.304,0.3223544,0.251779,0.492437,0.515048,0.6250544,0.21075,0.299661,0.378902,0.225609,0.4582388,0.719078,0.000810459,0.456179,0.0779193,0.0159217,0.3364107,0.537814,0.290595,0.1153806,0.27874,0.2906805,0.288706,0.146228,0.0478019,0.290227,0.121515,0.208184,0.27928,0.358,0.368308,0.2251776,0.400871,0.5181542,0.204923,0.285209,0.3097681,0.455884,0.410397,0.5671067,0.438729,0.350551,0.224359,0.3106828,0.4883933,0.330395,0.394027,0.2107567,0.2200038,0.3082802,0.337629,0.22508,1.51358,0.339322,0.332833,0.297364
7499.931,0.433297,0.267744,0.5417106,0.567513,0.688615,0.253399,0.347423,0.4318114,0.2730367,0.4856431,0.791561,0.03943317,0.499397,0.09864167,0.0252776,0.396054,0.5617371,0.3378543,0.152812,0.307885,0.344209,0.3489002,0.1625405,0.0850935,0.3314,0.143338,0.243419,0.339902,0.395005,0.427183,0.269833,0.44903,0.5615196,0.249634,0.32369,0.347044,0.502686,0.506828,0.60622,0.5225238,0.3990938,0.224585,0.3719371,0.554212,0.390423,0.430016,0.244663,0.248989,0.3561077,0.3747676,0.250691,1.61341,0.3854931,0.358132,0.334236
7914.558,0.4211316,0.325032,0.5814383,0.577409,0.81944,0.322651,0.392979,0.4892155,0.2917857,0.566152,0.921502,0.0606608,0.609468,0.1125655,0.115078,0.469203,0.7728759,0.352179,0.1580764,0.3802097,0.3925884,0.346066,0.1785521,0.112806,0.392206,0.1203602,0.286468,0.380962,0.403491,0.477279,0.3742064,0.5083119,0.6952255,0.307994,0.4112066,0.285753,0.53621,0.562862,0.7025785,0.6275253,0.455651,0.28363,0.423735,0.601624,0.409895,0.537677,0.275358,0.282218,0.386385,0.4252287,0.31733,1.782467,0.431384,0.3765499,0.441835
8329.185,1.19778,-0.00793692,0.547131,0.5275464,1.00219,0.433084,0.445516,0.539021,0.245108,1.6674,1.4721,0.11864,0.569032,0.1949182,0.198953,0.5910215,2.05805,0.465169,0.2575406,1.70508,0.417547,0.739898,0.190807,0.0650744,0.478042,0.188359,0.3679836,0.4528793,0.461647,0.543379,0.770126,0.572035,1.35931,0.224415,0.5072,3.05397,0.4973211,0.743348,1.10171,0.832259,0.565036,2.007907,0.660839,0.758238,0.505224,0.615239,0.30163,0.353847,0.1008761,0.40995,0.373651,2.367796,0.514783,0.611821,0.41622
8500.821,4.37876,6,0.578661,0.6018879,0.4579465,0.5489048,0.490723,2.36999,0.270446,2.27958,2.52689,-0.02017467,0.741302,0.268485,0.1201,0.597379,0.8859149,0.538051,0.194443,0.366406,0.625092,2.33497,0.291629,-0.008311963,0.458423,0.09219151,0.540448,0.7520096,1.16203,0.46485,-0.08518945,0.5475094,3.29388,0.105769,0.353903,3.271,0.498356,0,0.593482,0.513602,0.5693517,0.321104,0.3770955,0.7933593,0.738521,0.376412,0.329143,0.307118,6,0.6789613,0.151963,1.39146,0.391772,0.386859,2.35611

File: H2O_Free_Avg+PCA.csv
Wavenumber,Average_Baseline,PCA_1,PCA_2,PCA_3,PCA_4
1276.666,0.5,-7.32093e-16,7.93916e-16,-2.19084e-15,6.49514e-16
1284.38,0.393841,0.00717386,-0.0256018,-0.0308559,0.0616883
1292.094,0.304491,0.0135515,-0.045425,-0.0539846,0.10046
1299.808,0.229783,0.0192187,-0.060286,-0.0704709,0.120437
1307.522,0.167709,0.0242561,-0.0709362,-0.0813283,0.125398
1315.236,0.116415,0.028738,-0.0780626,-0.0874983,0.118781
1322.95,0.074207,0.0327334,-0.0822885,-0.0898492,0.103679
1330.664,0.0395447,0.0363054,-0.0841739,-0.0891759,0.0828464
1338.378,0.0110435,0.0395112,-0.0842158,-0.0861989,0.0586954
1346.092,-0.0125274,0.0424023,-0.0828491,-0.0815637,0.0332959
1353.806,-0.0322454,0.0450239,-0.0804466,-0.0758398,0.00837705
1361.52,-0.0490354,0.0474158,-0.0773201,-0.0695203,-0.0146735
1369.234,-0.064727,0.0496025,-0.0741331,-0.0627482,-0.0330092
1376.948,-0.0787448,0.0516005,-0.0706339,-0.0563517,-0.0475714
1384.662,-0.0910782,0.053509,-0.0667082,-0.0507278,-0.0589215
1392.376,-0.102041,0.0553621,-0.062382,-0.0456083,-0.0682531
1400.09,-0.11186,0.0569951,-0.0575639,-0.0411392,-0.0757976
1407.804,-0.12074,0.0584146,-0.05266,-0.037265,-0.0815742
1415.518,-0.128984,0.059687,-0.0481503,-0.0333209,-0.0850881
1423.232,-0.136782,0.0607322,-0.0436707,-0.0295456,-0.0871654
1430.946,-0.144172,0.0616346,-0.0387973,-0.0264579,-0.0871956
1438.66,-0.151139,0.0625752,-0.0333496,-0.0240893,-0.0834016
1446.374,-0.157742,0.0635051,-0.0276145,-0.022085,-0.0772143
1454.088,-0.163911,0.0643819,-0.0222134,-0.0204048,-0.0706163
1461.802,-0.169489,0.0651615,-0.0166669,-0.0198923,-0.0637538
1469.516,-0.174596,0.0658469,-0.0114075,-0.0200365,-0.0569832
1477.23,-0.179301,0.0663598,-0.00723345,-0.0193529,-0.0523157
1484.944,-0.183493,0.0666912,-0.00385955,-0.0177529,-0.0485934
1492.658,-0.187161,0.0670038,-0.0011889,-0.0154851,-0.0448607
1500.372,-0.189595,0.0672331,0.000529564,-0.0136475,-0.042173
1508.086,-0.192442,0.0674126,0.00369246,-0.0121053,-0.0369677
1515.8,-0.195054,0.0674883,0.0066923,-0.0105051,-0.032044
1523.514,-0.197465,0.0674633,0.00953967,-0.00885821,-0.0274555
1531.228,-0.19966,0.0673566,0.0121954,-0.00693042,-0.0231194
1538.942,-0.201583,0.0672133,0.0145284,-0.00422121,-0.01917
1546.656,-0.203431,0.0669508,0.016862,-0.00202393,-0.0166099
1554.37,-0.205283,0.0665533,0.0191535,-0.000285695,-0.0149244
1562.084,-0.207136,0.0660175,0.0214582,0.000850568,-0.0137881
1569.798,-0.209034,0.0654732,0.0236256,0.00126268,-0.0118395
1577.512,-0.210976,0.0650147,0.0257782,0.000958197,-0.00860278
1585.226,-0.212964,0.0645598,0.0281785,-0.000215365,-0.00374509
1592.94,-0.21505,0.0641189,0.0305314,-0.00215865,0.00247754
1600.654,-0.21719,0.0637835,0.0324811,-0.00429322,0.00879346
1608.368,-0.21942,0.0635242,0.0338489,-0.00619773,0.0147146
1616.082,-0.221806,0.0632791,0.0347323,-0.00780322,0.0199196
1623.796,-0.224363,0.0629733,0.0352901,-0.00923602,0.0248053
1631.51,-0.227011,0.0625484,0.035809,-0.0107522,0.0289924
1639.224,-0.229621,0.0621059,0.0366777,-0.0123893,0.0330065
1646.938,-0.232101,0.0616921,0.0382569,-0.0141773,0.0377271
1654.652,-0.23441,0.0612678,0.0404647,-0.0160842,0.0430426
1662.366,-0.23644,0.0608653,0.0428775,-0.0178549,0.0486414
1670.08,-0.23809,0.0604371,0.0455983,-0.0192689,0.0541265
1677.794,-0.239437,0.0599741,0.0481637,-0.0195623,0.0586109
1685.508,-0.240544,0.059412,0.0501436,-0.0182836,0.060507
1693.222,-0.241425,0.0587451,0.0515352,-0.0158338,0.0600978
1700.936,-0.242148,0.0579926,0.0523098,-0.0124166,0.0574882
1708.65,-0.242764,0.0570571,0.0527333,-0.00818586,0.0529036
1716.364,-0.243278,0.0560017,0.052727,-0.00314842,0.0472939
1724.078,-0.243661,0.0548618,0.0526275,0.00196838,0.0417804
1731.792,-0.243971,0.0536396,0.0524617,0.00666944,0.0367537
1739.506,-0.244307,0.0523821,0.0521418,0.010819,0.0322513
1747.22,-0.244722,0.051152,0.0516319,0.0144106,0.0282437
1754.934,-0.245326,0.0499829,0.0505899,0.0178647,0.0249422
1762.648,-0.246217,0.0488723,0.0491352,0.0213937,0.0225031
1770.362,-0.24751,0.047761,0.0474813,0.0250374,0.0210105
1778.076,-0.249262,0.0466174,0.0455308,0.0287598,0.0193461
1785.79,-0.251507,0.045474,0.0432307,0.0323603,0.0167069
1793.504,-0.254269,0.0443265,0.0405303,0.0357081,0.0130254
1801.218,-0.25749,0.0431579,0.0376253,0.0386925,0.00874964
1808.932,-0.261079,0.0420128,0.03464,0.0412355,0.00462674
1816.646,-0.265014,0.0409363,0.0317478,0.0432756,0.00140851
1824.36,-0.269227,0.0399028,0.0293528,0.0445565,-0.000295856
1832.074,-0.273672,0.0388907,0.0272522,0.045219,-0.000580842
1839.788,-0.278324,0.0379757,0.0250656,0.0455992,-0.000237136
1847.502,-0.283152,0.0371934,0.0227494,0.0460669,-0.000139619
1855.216,-0.288175,0.0364715,0.0201337,0.0469015,-0.000455424
1862.93,-0.29342,0.0357379,0.0170184,0.0481688,-0.00150643
1870.644,-0.29886,0.0349489,0.0134378,0.0497482,-0.0031874
1878.358,-0.30449,0.0340647,0.00946973,0.0515476,-0.00515653
1886.072,-0.310343,0.0330613,0.00531751,0.0535146,-0.00713274
1893.786,-0.316413,0.031971,0.000991084,0.0556558,-0.00886092
1901.5,-0.322659,0.0308375,-0.00315275,0.0577307,-0.00995622
1909.214,-0.329069,0.0297204,-0.00694147,0.0596443,-0.0103367
1916.927,-0.335616,0.0286392,-0.0103764,0.0614021,-0.0100927
1924.641,-0.34225,0.027622,-0.0132726,0.0625477,-0.00855153
1932.355,-0.348978,0.0267129,-0.0156247,0.0628306,-0.00560957
1940.069,-0.355826,0.0259122,-0.0177447,0.0623491,-0.00186066
1947.783,-0.362806,0.0252056,-0.019903,0.0614973,0.00210567
1955.497,-0.369928,0.024524,-0.0222767,0.060736,0.0056657
1963.211,-0.377165,0.0238604,-0.0250177,0.0602599,0.00858583
1970.925,-0.384453,0.0232342,-0.0278231,0.059849,0.0109058
1978.639,-0.391739,0.0226464,-0.0304034,0.0593545,0.012992
1986.354,-0.398925,0.0221319,-0.0327804,0.0586866,0.0148721
1994.068,-0.405861,0.0216996,-0.0348838,0.0575534,0.0169876
2001.781,-0.412449,0.0213524,-0.0365936,0.0558245,0.019828
2009.495,-0.418646,0.0210884,-0.0377914,0.0535417,0.0233184
2017.209,-0.424443,0.0208551,-0.0384905,0.0507934,0.0273968
2024.923,-0.429824,0.0206158,-0.038792,0.0477674,0.0315729
2032.637,-0.434786,0.0203751,-0.0389344,0.0449479,0.0354067
2040.351,-0.439349,0.0201079,-0.0391725,0.042767,0.0384177
2048.065,-0.443544,0.0197662,-0.0395846,0.041472,0.0401735
2055.779,-0.447417,0.0193041,-0.0402646,0.0410565,0.0408091
2063.493,-0.451004,0.0187034,-0.0412598,0.0413105,0.0405034
2071.207,-0.454316,0.0179926,-0.0425317,0.0419683,0.0395055
2078.921,-0.457364,0.0172301,-0.0438372,0.0425844,0.0383377
2086.635,-0.460167,0.0164894,-0.0448884,0.0428775,0.0372963
2094.349,-0.462736,0.0157939,-0.0455164,0.0427973,0.0364746
2102.063,-0.465083,0.0151462,-0.0457364,0.0423179,0.0361347
2109.777,-0.46725,0.0145532,-0.0456299,0.0415669,0.0363515
2117.491,-0.469298,0.0139874,-0.0452113,0.040846,0.0369098
2125.205,-0.471297,0.013411,-0.0446748,0.040385,0.0375377
2132.919,-0.473278,0.0128152,-0.0443256,0.0401913,0.0379186
2140.633,-0.475244,0.0122245,-0.044534,0.040463,0.0375364
2148.347,-0.477207,0.0116085,-0.0451758,0.0410906,0.0360177
2156.061,-0.479138,0.0109498,-0.0459863,0.0417912,0.0332467
2163.775,-0.480983,0.0103037,-0.0469018,0.0425342,0.0293848
2171.489,-0.482713,0.00970292,-0.0477325,0.0431817,0.0249625
2179.203,-0.48432,0.00913945,-0.0481939,0.043465,0.0207557
2186.917,-0.485817,0.00860446,-0.0481633,0.0433177,0.0175092
2194.631,-0.487223,0.00811239,-0.0477695,0.042951,0.0154615
2202.345,-0.488545,0.00765913,-0.0470669,0.0424824,0.0148132
2210.059,-0.48979,0.00719155,-0.0461406,0.0419213,0.0149454
2217.773,-0.490917,0.00671066,-0.0449398,0.0412433,0.0155969
2225.487,-0.491982,0.00620851,-0.0437361,0.0405859,0.0157337
2233.201,-0.493046,0.00576005,-0.0427542,0.0397368,0.0148776
2240.915,-0.493982,0.00539656,-0.0415347,0.0385769,0.0134014
2248.629,-0.494727,0.00495154,-0.0399611,0.037404,0.0113052
2256.343,-0.495455,0.00442196,-0.0386944,0.0365199,0.0081008
2264.057,-0.496304,0.00398126,-0.0381067,0.035951,0.00389899
2271.771,-0.497275,0.00370821,-0.0380242,0.0357021,-0.000651193
2279.485,-0.498287,0.00359734,-0.0382519,0.0356944,-0.00523034
2287.199,-0.499305,0.00357712,-0.0386272,0.0357747,-0.0100122
2294.913,-0.500328,0.00363315,-0.0391172,0.0359423,-0.0149427
2302.627,-0.50134,0.00375322,-0.039654,0.0361452,-0.0198973
2310.341,-0.502321,0.00392155,-0.0401553,0.0363182,-0.0247301
2318.055,-0.503249,0.00411873,-0.0405246,0.0363836,-0.0292749
2325.769,-0.504093,0.00432179,-0.0406512,0.0362504,-0.0333443
2333.483,-0.504822,0.00450414,-0.0404097,0.035815,-0.0367299
2341.197,-0.505399,0.00463559,-0.0396609,0.0349605,-0.0392028
2348.911,-0.505782,0.00468238,-0.0382508,0.0335576,-0.040513
2356.625,-0.505927,0.00460712,-0.0360115,0.0314636,-0.0403896
2364.339,-0.505782,0.00436885,-0.0327604,0.0285232,-0.0385409
2372.053,-0.505294,0.00392299,-0.0283009,0.0245679,-0.0346543
2379.767,-0.504404,0.0032214,-0.0224219,0.0194167,-0.0283963
2387.481,-0.50305,0.0022123,-0.014898,0.0128753,-0.0194126
2395.195,-0.501164,0.000840335,-0.00548968,0.00473656,-0.00732808
2399.052,-0.5,3.16124e-17,1.85994e-18,-1.02495e-16,-4.67212e-17