Folder: Basalt_Carbonate_Baselines/Glass FTIR Baseline Share With Sarah 2023 (part 3)

File: Water_Peak_1635.csv
Wavenumber,Average_1630_Peak,1630_Peak_PCA_1,1630_Peak_PCA_2,1630_Peak_PCA_3
1276.666,0.0,0.0,0.0,0.0
1280.523,0.0,0.0,0.0,0.0
1284.38,0.0,0.0,0.0,0.0
1288.237,0.0,0.0,0.0,0.0
1292.094,0.0,0.0,0.0,0.0
1295.951,0.0,0.0,0.0,0.0
1299.808,0.0,0.0,0.0,0.0
1303.665,0.0,0.0,0.0,0.0
1307.522,0.0,0.0,0.0,0.0
1311.379,0.0,0.0,0.0,0.0
1315.236,0.0,0.0,0.0,0.0
1319.093,0.0,0.0,0.0,0.0
1322.95,0.0,0.0,0.0,0.0
1326.807,0.0,0.0,0.0,0.0
1330.664,0.0,0.0,0.0,0.0
1334.521,0.0,0.0,0.0,0.0
1338.378,0.0,0.0,0.0,0.0
1342.235,0.0,0.0,0.0,0.0
1346.092,0.0,0.0,0.0,0.0
1349.949,0.0,0.0,0.0,0.0
1353.806,0.0,0.0,0.0,0.0
1357.663,0.0,0.0,0.0,0.0
1361.52,0.0,0.0,0.0,0.0
1365.377,0.0,0.0,0.0,0.0
1369.234,0.0,0.0,0.0,0.0
1373.091,0.0,0.0,0.0,0.0
1376.948,0.0,0.0,0.0,0.0
1380.805,0.0,0.0,0.0,0.0
1384.662,0.0,0.0,0.0,0.0
1388.519,0.0,0.0,0.0,0.0
1392.376,0.0,0.0,0.0,0.0
1396.233,0.0,0.0,0.0,0.0
1400.09,0.0,0.0,0.0,0.0
1403.947,0.0,0.0,0.0,0.0
1407.804,0.0,0.0,0.0,0.0
1411.661,0.0,0.0,0.0,0.0
1415.518,0.0,0.0,0.0,0.0
1419.375,0.0,0.0,0.0,0.0
1423.232,0.0,0.0,0.0,0.0
1427.089,0.0,0.0,0.0,0.0
1430.946,0.0,0.0,0.0,0.0
1434.803,0.0,0.0,0.0,0.0
1438.66,0.0,0.0,0.0,0.0
1442.517,0.0,0.0,0.0,0.0
1446.374,0.0,0.0,0.0,0.0
1450.231,0.0,0.0,0.0,0.0
1454.088,0.0315656,-0.000427709,-0.00830383,0.00754391
1457.945,0.0328896,-0.0039112,-0.0107018,0.00965747
1461.802,0.0322542,-0.00831306,-0.0145604,0.00978601
1465.659,0.0315337,-0.013401,-0.0206293,0.00954957
1469.516,0.031022,-0.0188162,-0.0280899,0.00841405
1473.373,0.0323871,-0.024398,-0.035995,0.00583315
1477.23,0.0338106,-0.0295292,-0.042835,-0.00168197
1481.087,0.0356656,-0.0342843,-0.0488235,-0.0121065
1484.944,0.0389452,-0.0387265,-0.0537107,-0.0243667
1488.801,0.0414214,-0.0429388,-0.0575972,-0.0366638
1492.658,0.0444645,-0.0468716,-0.0607417,-0.0483851
1496.515,0.0451226,-0.0507007,-0.0638149,-0.0582295
1500.372,0.0420366,-0.0546977,-0.0676496,-0.0661987
1504.229,0.0427274,-0.0586184,-0.0722129,-0.0724557
1508.086,0.0463091,-0.0621846,-0.0772023,-0.0759964
1511.943,0.0487887,-0.0656467,-0.082819,-0.0748384
1515.8,0.0524617,-0.0685043,-0.086745,-0.0734228
1519.657,0.0569574,-0.0708409,-0.088811,-0.0711921
1523.514,0.0599564,-0.0729263,-0.0893205,-0.0678218
1527.371,0.0648824,-0.0749796,-0.0890087,-0.0636618
1531.228,0.0677796,-0.0769237,-0.0876599,-0.0612324
1535.085,0.0711802,-0.0790494,-0.0858976,-0.0601077
1538.942,0.0737989,-0.0816607,-0.0846151,-0.0581155
1542.799,0.0781719,-0.084644,-0.0843688,-0.053653
1546.656,0.0841641,-0.0876803,-0.0848125,-0.0462565
1550.513,0.0886159,-0.0906255,-0.0864173,-0.033918
1554.37,0.09484,-0.0930936,-0.0880851,-0.0192026
1558.227,0.100326,-0.0950434,-0.0901423,-0.00204335
1562.084,0.109563,-0.096432,-0.0905755,0.0137722
1565.941,0.119966,-0.0974299,-0.0895317,0.0279036
1569.798,0.131974,-0.0980537,-0.0870204,0.0398662
1573.655,0.143557,-0.0987025,-0.0830046,0.049761
1577.512,0.156625,-0.099634,-0.0781087,0.0577203
1581.369,0.173108,-0.101026,-0.0732944,0.0644134
1585.226,0.192245,-0.103206,-0.0692001,0.0694582
1589.083,0.21664,-0.106081,-0.066365,0.0728691
1592.94,0.247041,-0.108826,-0.0660219,0.0766193
1596.797,0.284531,-0.110322,-0.0678325,0.0815255
1600.654,0.333056,-0.109071,-0.0711576,0.08743
1604.511,0.391311,-0.103814,-0.0762592,0.0956458
1608.368,0.463644,-0.0936785,-0.0802948,0.100552
1612.225,0.546803,-0.079267,-0.0829908,0.101551
1616.082,0.63946,-0.0620044,-0.0841678,0.0989501
1619.939,0.737308,-0.0440708,-0.0821479,0.0902747
1623.796,0.828697,-0.0282892,-0.0752942,0.0739798
1627.653,0.906587,-0.0171983,-0.0626615,0.0508349
1631.51,0.959943,-0.0128061,-0.0457901,0.0251679
1635.367,0.990913,-0.0161267,-0.023794,-0.003652
1639.224,0.990102,-0.02711,0.00141746,-0.0325714
1643.081,0.967505,-0.0444701,0.0278782,-0.0589924
1646.938,0.921706,-0.0660738,0.0538994,-0.0813683
1650.795,0.859415,-0.0890974,0.0783248,-0.09897
1654.652,0.788351,-0.11058,0.0989013,-0.109776
1658.509,0.713829,-0.128167,0.114416,-0.112888
1662.366,0.636624,-0.14015,0.124622,-0.109349
1666.223,0.560385,-0.14596,0.129642,-0.100145
1670.08,0.488069,-0.145956,0.130242,-0.0873673
1673.937,0.421303,-0.141208,0.127468,-0.0726983
1677.794,0.361099,-0.133414,0.122533,-0.056955
1681.651,0.307552,-0.124014,0.116326,-0.0411728
1685.508,0.263858,-0.11423,0.109469,-0.0244353
1689.365,0.225204,-0.104868,0.103315,-0.00746578
1693.222,0.191052,-0.096489,0.0979761,0.0106412
1697.079,0.163977,-0.0891724,0.0930969,0.0310133
1700.936,0.141041,-0.0827254,0.0893294,0.0526861
1704.793,0.121789,-0.0768295,0.0858552,0.0761752
1708.65,0.106687,-0.0713547,0.0815459,0.103016
1712.507,0.095051,-0.0658396,0.0778998,0.127223
1716.364,0.0854811,-0.0602192,0.0742377,0.148217
1720.221,0.0783435,-0.0543863,0.0703815,0.163932
1724.078,0.0710349,-0.0484651,0.0662512,0.172558
1727.935,0.0646861,-0.0426341,0.0624761,0.171672
1731.792,0.0586195,-0.0370228,0.059468,0.161476
1735.649,0.0541691,-0.0318969,0.0569003,0.144159
1739.506,0.0487922,-0.0276814,0.0557535,0.119917
1743.363,0.044343,-0.0245422,0.0552216,0.0927056
1747.22,0.039969,-0.0225144,0.0552771,0.0642147
1751.077,0.0354728,-0.021798,0.0547079,0.038584
1754.934,0.0310716,-0.0218905,0.0544029,0.0155566
1758.791,0.0273379,-0.0223149,0.0531062,-0.00179931
1762.648,0.0247644,-0.0226819,0.05076,-0.0131552
1766.505,0.0216233,-0.022592,0.0475902,-0.0189351
1770.362,0.0188867,-0.0215084,0.0436237,-0.0209218
1774.219,0.0165807,-0.0196425,0.0388316,-0.0183583
1778.076,0.0133169,-0.0169921,0.0333522,-0.0120877
1781.933,0.0107111,-0.0136556,0.027391,-0.00319466
1785.79,0.00790507,-0.00982355,0.0212101,0.00709061
1789.647,0.00531842,-0.00576245,0.0151126,0.0175084
1793.504,0.00427503,-0.00179131,0.00942334,0.026906
1797.361,0.00267736,0.00174965,0.00446571,0.0343952
1801.218,0.00192439,0.00453776,0.000533733,0.039529
1805.075,0.00140946,0.00631419,-0.00213961,0.0424997
1808.932,0.000435192,0.00693784,-0.00341828,0.044357
1812.789,0.00016123,0.0064468,-0.0033032,0.0472461
1816.646,-0.000515645,0.00512737,-0.00197651,0.0546671
1820.503,0.0,0.0,0.0,0.0
1824.36,0.0,0.0,0.0,0.0
1828.217,0.0,0.0,0.0,0.0
1832.074,0.0,0.0,0.0,0.0
1835.931,0.0,0.0,0.0,0.0
1839.788,0.0,0.0,0.0,0.0
1843.645,0.0,0.0,0.0,0.0
1847.502,0.0,0.0,0.0,0.0
1851.359,0.0,0.0,0.0,0.0
1855.216,0.0,0.0,0.0,0.0
1859.073,0.0,0.0,0.0,0.0
1862.93,0.0,0.0,0.0,0.0
1866.786,0.0,0.0,0.0,0.0
1870.644,0.0,0.0,0.0,0.0
1874.5,0.0,0.0,0.0,0.0
1878.358,0.0,0.0,0.0,0.0
1882.215,0.0,0.0,0.0,0.0
1886.072,0.0,0.0,0.0,0.0
1889.929,0.0,0.0,0.0,0.0
1893.786,0.0,0.0,0.0,0.0
1897.643,0.0,0.0,0.0,0.0
1901.5,0.0,0.0,0.0,0.0
1905.357,0.0,0.0,0.0,0.0
1909.214,0.0,0.0,0.0,0.0
1913.071,0.0,0.0,0.0,0.0
1916.927,0.0,0.0,0.0,0.0
1920.785,0.0,0.0,0.0,0.0
1924.641,0.0,0.0,0.0,0.0
1928.499,0.0,0.0,0.0,0.0
1932.355,0.0,0.0,0.0,0.0
1936.213,0.0,0.0,0.0,0.0
1940.069,0.0,0.0,0.0,0.0
1943.927,0.0,0.0,0.0,0.0
1947.783,0.0,0.0,0.0,0.0
1951.641,0.0,0.0,0.0,0.0
1955.497,0.0,0.0,0.0,0.0
1959.354,0.0,0.0,0.0,0.0
1963.211,0.0,0.0,0.0,0.0
1967.068,0.0,0.0,0.0,0.0
1970.925,0.0,0.0,0.0,0.0
1974.782,0.0,0.0,0.0,0.0
1978.639,0.0,0.0,0.0,0.0
1982.496,0.0,0.0,0.0,0.0
1986.354,0.0,0.0,0.0,0.0
1990.21,0.0,0.0,0.0,0.0
1994.068,0.0,0.0,0.0,0.0
1997.924,0.0,0.0,0.0,0.0
2001.781,0.0,0.0,0.0,0.0
2005.638,0.0,0.0,0.0,0.0
2009.495,0.0,0.0,0.0,0.0
2013.352,0.0,0.0,0.0,0.0
2017.209,0.0,0.0,0.0,0.0
2021.066,0.0,0.0,0.0,0.0
2024.923,0.0,0.0,0.0,0.0
2028.78,0.0,0.0,0.0,0.0
2032.637,0.0,0.0,0.0,0.0
2036.494,0.0,0.0,0.0,0.0
2040.351,0.0,0.0,0.0,0.0
2044.208,0.0,0.0,0.0,0.0
2048.065,0.0,0.0,0.0,0.0
2051.922,0.0,0.0,0.0,0.0
2055.779,0.0,0.0,0.0,0.0
2059.636,0.0,0.0,0.0,0.0
2063.493,0.0,0.0,0.0,0.0
2067.35,0.0,0.0,0.0,0.0
2071.207,0.0,0.0,0.0,0.0
2075.064,0.0,0.0,0.0,0.0
2078.921,0.0,0.0,0.0,0.0
2082.778,0.0,0.0,0.0,0.0
2086.635,0.0,0.0,0.0,0.0
2090.492,0.0,0.0,0.0,0.0
2094.349,0.0,0.0,0.0,0.0
2098.206,0.0,0.0,0.0,0.0
2102.063,0.0,0.0,0.0,0.0
2105.92,0.0,0.0,0.0,0.0
2109.777,0.0,0.0,0.0,0.0
2113.634,0.0,0.0,0.0,0.0
2117.491,0.0,0.0,0.0,0.0
2121.348,0.0,0.0,0.0,0.0
2125.205,0.0,0.0,0.0,0.0
2129.062,0.0,0.0,0.0,0.0
2132.919,0.0,0.0,0.0,0.0
2136.776,0.0,0.0,0.0,0.0
2140.633,0.0,0.0,0.0,0.0
2144.49,0.0,0.0,0.0,0.0
2148.347,0.0,0.0,0.0,0.0
2152.204,0.0,0.0,0.0,0.0
2156.061,0.0,0.0,0.0,0.0
2159.918,0.0,0.0,0.0,0.0
2163.775,0.0,0.0,0.0,0.0
2167.632,0.0,0.0,0.0,0.0
2171.489,0.0,0.0,0.0,0.0
2175.346,0.0,0.0,0.0,0.0
2179.203,0.0,0.0,0.0,0.0
2183.06,0.0,0.0,0.0,0.0
2186.917,0.0,0.0,0.0,0.0
2190.774,0.0,0.0,0.0,0.0
2194.631,0.0,0.0,0.0,0.0
2198.488,0.0,0.0,0.0,0.0
2202.345,0.0,0.0,0.0,0.0
2206.202,0.0,0.0,0.0,0.0
2210.059,0.0,0.0,0.0,0.0
2213.916,0.0,0.0,0.0,0.0
2217.773,0.0,0.0,0.0,0.0
2221.63,0.0,0.0,0.0,0.0
2225.487,0.0,0.0,0.0,0.0
2229.344,0.0,0.0,0.0,0.0
2233.201,0.0,0.0,0.0,0.0
2237.058,0.0,0.0,0.0,0.0
2240.915,0.0,0.0,0.0,0.0
2244.772,0.0,0.0,0.0,0.0
2248.629,0.0,0.0,0.0,0.0
2252.486,0.0,0.0,0.0,0.0
2256.343,0.0,0.0,0.0,0.0
2260.2,0.0,0.0,0.0,0.0
2264.057,0.0,0.0,0.0,0.0
2267.914,0.0,0.0,0.0,0.0
2271.771,0.0,0.0,0.0,0.0
2275.628,0.0,0.0,0.0,0.0
2279.485,0.0,0.0,0.0,0.0
2283.342,0.0,0.0,0.0,0.0
2287.199,0.0,0.0,0.0,0.0
2291.056,0.0,0.0,0.0,0.0
2294.913,0.0,0.0,0.0,0.0
2298.77,0.0,0.0,0.0,0.0
2302.627,0.0,0.0,0.0,0.0
2306.484,0.0,0.0,0.0,0.0
2310.341,0.0,0.0,0.0,0.0
2314.198,0.0,0.0,0.0,0.0
2318.055,0.0,0.0,0.0,0.0
2321.912,0.0,0.0,0.0,0.0
2325.769,0.0,0.0,0.0,0.0
2329.626,0.0,0.0,0.0,0.0
2333.483,0.0,0.0,0.0,0.0
2337.34,0.0,0.0,0.0,0.0
2341.197,0.0,0.0,0.0,0.0
2345.054,0.0,0.0,0.0,0.0
2348.911,0.0,0.0,0.0,0.0
2352.768,0.0,0.0,0.0,0.0
2356.625,0.0,0.0,0.0,0.0
2360.482,0.0,0.0,0.0,0.0
2364.339,0.0,0.0,0.0,0.0
2368.196,0.0,0.0,0.0,0.0
2372.053,0.0,0.0,0.0,0.0
2375.91,0.0,0.0,0.0,0.0
2379.767,0.0,0.0,0.0,0.0
2383.624,0.0,0.0,0.0,0.0
2387.481,0.0,0.0,0.0,0.0
2391.338,0.0,0.0,0.0,0.0
2395.195,0.0,0.0,0.0,0.0
2399.052,0.0,0.0,0.0,0.0