Folder: Basalt_Carbonate_Baselines/Glass FTIR Baseline Share With Sarah 2023/Dans_Examples (part 2)

File: FR02MI01.csv
449.3401,2.58038
476.3391,0.7179789
503.3381,0.721497
530.3371,0.560154
557.3361,0.278535
584.335,0.727903
611.334,1.85282
638.333,1.62385
665.332,2.22035
692.3309,3.096398
719.33,2.22229
746.3289,3.20525
773.3279,2.91364
800.3269,2.30586
827.3259,2.03375
854.3248,2.88389
881.3238,2.4259
908.3228,2.3354
935.3218,4.16399
962.3207,2.886312
989.3197,3.45423
1016.319,3.5367
1043.318,3.70902
1070.317,2.94985
1097.316,2.70175
1124.315,3.04114
1151.31,2.713208
1178.313,2.49111
1205.312,2.54961
1232.31,2.42309
1259.31,1.38703
1286.308,0.813868
1313.307,0.6160354
1340.307,0.5286795
1367.305,0.481304
1394.3,0.4612234
1421.3,0.4538
1448.3,0.4336914
1475.3,0.403761
1502.3,0.415534
1529.299,0.418325
1556.3,0.407118
1583.297,0.424431
1610.296,0.602736
1637.295,0.905051
1664.29,0.6229255
1691.293,0.401334
1718.29,0.330872
1745.29,0.3109637
1772.29,0.301612
1799.289,0.292648
1826.29,0.27696
1853.287,0.260893
1880.286,0.244279
1907.285,0.229759
1934.28,0.2107656
1961.283,0.1922703
1988.28,0.172941
2015.281,0.157742
2042.28,0.147431
2069.279,0.1406783
2096.278,0.136784
2123.277,0.133273
2150.276,0.131176
2177.275,0.1295164
2204.274,0.1295932
2231.27,0.129041
2258.272,0.130396
2285.271,0.131511
2312.27,0.12987
2339.269,0.127432
2366.268,0.125712
2393.27,0.129102
2420.266,0.125596
2447.265,0.122312
2474.264,0.118431
2501.262,0.1174409
2528.261,0.117602
2555.26,0.1233729
2582.26,0.130883
2609.259,0.1431607
2636.258,0.1581188
2663.256,0.173918
2690.255,0.1949275
2717.25,0.216612
2744.25,0.243596
2771.252,0.269472
2798.25,0.3009872
2825.25,0.333036
2852.25,0.3707547
2879.248,0.410692
2906.25,0.454533
2933.25,0.50307
2960.245,0.554221
2987.244,0.6125837
3014.243,0.672178
3041.242,0.7376491
3068.241,0.808468
3095.24,0.885743
3122.239,0.968769
3149.238,1.05078
3176.237,1.1461
3203.236,1.23085
3230.235,1.31686
3257.23,1.37786
3284.23,1.43283
3311.232,1.51681
3338.23,1.59543
3365.23,1.70905
3392.23,1.74065
3419.228,1.84365
3446.23,1.866611
3473.23,1.90047
3500.225,1.92148
3527.224,1.95832
3554.223,1.94795
3581.222,1.879734
3608.22,1.60152
3635.22,1.11735
3662.219,0.56834
3689.218,0.255453
3716.217,0.141458
3743.216,0.100367
3770.215,0.0867338
3797.21,0.0819241
3824.21,0.0787173
3851.211,0.077451
3878.21,0.0784597
3905.21,0.0791086
3932.208,0.0807471
3959.208,0.0832797
3986.21,0.0811258
4013.205,0.0833503
4040.204,0.0814841
4067.203,0.079595
4094.202,0.0783421
4121.201,0.0758446
4148.2,0.07674059
4175.2,0.0743012
4202.198,0.0772987
4229.197,0.0761896
4256.196,0.0779809
4283.195,0.0784144
4310.194,0.0813025
4337.193,0.0835098
4364.192,0.0850587
4391.191,0.09039065
4418.19,0.0964629
4445.189,0.09945
4472.188,0.0995921
4499.187,0.105279
4526.186,0.103062
4553.185,0.104472
4580.184,0.100983
4607.183,0.100419
4634.182,0.101961
4661.181,0.10565
4688.18,0.106759
4715.179,0.107165
4742.178,0.108636
4769.177,0.1121203
4796.18,0.1141502
4823.175,0.116154
4850.174,0.119823
4877.173,0.120091
4904.17,0.123342
4931.17,0.123795
4958.169,0.128992
4985.168,0.132292
5012.167,0.135161
5039.167,0.135354
5066.166,0.137713
5093.165,0.141336
5120.16,0.1433417
5147.163,0.148342
5174.162,0.1514503
5201.161,0.152616
5228.16,0.157748
5255.158,0.1521098
5282.16,0.1473078
5309.156,0.144268
5336.155,0.147978
5363.154,0.145983
5390.153,0.14429
5417.15,0.144952
5444.151,0.148125
5471.15,0.150037
5498.149,0.147022
5525.148,0.147739
5552.147,0.152444
5579.146,0.153349
5606.145,0.1505776
5633.144,0.152295
5660.143,0.152092
5687.142,0.148777
5714.141,0.150767
5741.14,0.152442
5768.139,0.148382
5795.14,0.150911
5822.137,0.148198
5849.14,0.149176
5876.135,0.150931
5903.134,0.150828
5930.13,0.150245
5957.132,0.147347
5984.13,0.146915
6011.13,0.146188
6038.129,0.148433
6065.13,0.1487549
6092.13,0.154776
6119.126,0.145659
6146.125,0.149914
6173.124,0.145483
6200.12,0.148312
6227.12,0.144468
6254.121,0.1480412
6281.12,0.1520078
6308.12,0.144244
6335.118,0.148699
6362.12,0.1456
6389.116,0.153003
6416.115,0.1554
6443.113,0.1483285
6470.11,0.151794
6497.111,0.151306
6524.11,0.15879
6551.109,0.151653
6578.108,0.150895
6605.107,0.156401
6632.106,0.157814
6659.105,0.152592
6686.104,0.1611639
6713.104,0.170114
6740.102,0.152101
6767.101,0.178822
6794.1,0.165105
6821.099,0.1766964
6848.1,0.158376
6875.097,0.181288
6902.096,0.174044
6929.095,0.178648
6956.094,0.17814
6983.09,0.187903
7010.092,0.187425
7037.09,0.190541
7064.09,0.18388
7091.089,0.2011345
7118.09,0.175718
7145.09,0.175595
7172.09,0.188711
7199.085,0.211857
7226.084,0.2085766
7253.08,0.1951885
7280.08,0.1977
7307.081,0.2142859
7334.08,0.1953676
7361.08,0.2025169
7388.078,0.191487
7415.08,0.212572
7442.076,0.2176834
7469.075,0.205928
7496.07,0.195661
7523.073,0.1939923
7550.07,0.229542
7577.071,0.225641
7604.07,0.238282
7631.068,0.266706
7658.07,0.192311
7685.066,0.182959
7712.065,0.250906
7739.064,0.216307
7766.063,0.229833
7793.063,0.269144
7820.062,0.280059
7847.061,0.244832
7874.06,0.228831
7901.059,0.229257
7928.057,0.3270434
7955.056,0.387081
7982.055,0.368594
8009.054,0.313647
8036.05,0.339307
8063.052,0.328439
8090.05,0.29935
8117.05,0.191532
8144.049,0.131886
8171.05,0.357605
8198.05,0.0487008
8225.046,0.177549
8252.045,0.393424
8279.044,1.14684
8306.043,0.831696
8333.042,0.822066
8360.041,0.703318
8387.04,-0.290118
8414.039,0.25091
8441.038,1.24888
8468.037,2.01937
8495.036,4.027725
8500.821,4.01193

File: FR04MI01.csv
449.3401,2.02195
476.3391,0.37763
503.3381,2.92927
530.3371,3.35418
557.3361,1.4753
584.335,0.03966444
611.334,1.7112
638.333,1.86096
665.332,0.9613701
692.3309,2.0401
719.33,2.14893
746.3289,1.35866
773.3279,1.46079
800.3269,1.54401
827.3259,1.54759
854.3248,1.606
881.3238,2.20779
908.3228,2.38176
935.3218,1.6884
962.3207,2.03964
989.3197,2.17467
1016.319,2.099566
1043.318,2.28863
1070.317,2.8339
1097.316,2.41267
1124.315,2.03194
1151.31,2.123967
1178.313,1.99662
1205.312,1.94987
1232.31,1.51774
1259.31,1.00493
1286.308,0.710875
1313.307,0.543606
1340.307,0.446377
1367.305,0.409883
1394.3,0.4056559
1421.3,0.416512
1448.3,0.403179
1475.3,0.379938
1502.3,0.393999
1529.299,0.405892
1556.3,0.3786235
1583.297,0.374954
1610.296,0.4522706
1637.295,0.601571
1664.29,0.490423
1691.293,0.3730322
1718.29,0.329773
1745.29,0.324386
1772.29,0.319746
1799.289,0.302688
1826.29,0.2983734
1853.287,0.283369
1880.286,0.280055
1907.285,0.267812
1934.28,0.258176
1961.283,0.247123
1988.28,0.236421
2015.281,0.233632
2042.28,0.222117
2069.279,0.225906
2096.278,0.2203767
2123.277,0.223107
2150.276,0.225361
2177.275,0.224351
2204.274,0.232786
2231.27,0.234689
2258.272,0.238622
2285.271,0.243609
2312.27,0.241803
2339.269,0.2491434
2366.268,0.2486983
2393.27,0.2520052
2420.266,0.250324
2447.265,0.245675
2474.264,0.245438
2501.262,0.242376
2528.261,0.24156
2555.26,0.248883
2582.26,0.2515805
2609.259,0.262651
2636.258,0.27546
2663.256,0.2876987
2690.255,0.306893
2717.25,0.32139
2744.25,0.341119
2771.252,0.367866
2798.25,0.386766
2825.25,0.416199
2852.25,0.438435
2879.248,0.4755088
2906.25,0.511694
2933.25,0.542704
2960.245,0.582922
2987.244,0.622569
3014.243,0.660942
3041.242,0.7149736
3068.241,0.759477
3095.24,0.812174
3122.239,0.869357
3149.238,0.913376
3176.237,0.9937293
3203.236,1.051086
3230.235,1.10374
3257.23,1.14204
3284.23,1.21422
3311.232,1.2579
3338.23,1.30606
3365.23,1.38589
3392.23,1.45284
3419.228,1.45801
3446.23,1.489812
3473.23,1.55749
3500.225,1.46571
3527.224,1.62535
3554.223,1.518953
3581.222,1.49001
3608.22,1.29974
3635.22,0.919023
3662.219,0.554692
3689.218,0.35528
3716.217,0.266825
3743.216,0.2393784
3770.215,0.2203973
3797.21,0.220401
3824.21,0.22275
3851.211,0.213096
3878.21,0.221845
3905.21,0.2161045
3932.208,0.224014
3959.208,0.219756
3986.21,0.21746
4013.205,0.223779
4040.204,0.219292
4067.203,0.219056
4094.202,0.22355
4121.201,0.2169204
4148.2,0.22328
4175.2,0.21957
4202.198,0.22146
4229.197,0.2207993
4256.196,0.2201594
4283.195,0.225636
4310.194,0.226804
4337.193,0.2328789
4364.192,0.236455
4391.191,0.236797
4418.19,0.240872
4445.189,0.241719
4472.188,0.245626
4499.187,0.246355
4526.186,0.245948
4553.185,0.2492399
4580.184,0.248713
4607.183,0.248359
4634.182,0.2472967
4661.181,0.252277
4688.18,0.251462
4715.179,0.257316
4742.178,0.2546439
4769.177,0.2595015
4796.18,0.2571504
4823.175,0.25971
4850.174,0.259834
4877.173,0.26278
4904.17,0.2698438
4931.17,0.273619
4958.169,0.2713055
4985.168,0.28055
5012.167,0.27256
5039.167,0.276914
5066.166,0.276444
5093.165,0.271857
5120.16,0.284101
5147.163,0.278495
5174.162,0.283726
5201.161,0.292764
5228.16,0.2787777
5255.158,0.282169
5282.16,0.280498
5309.156,0.2808232
5336.155,0.2878429
5363.154,0.284741
5390.153,0.28763
5417.15,0.286757
5444.151,0.289229
5471.15,0.274835
5498.149,0.290193
5525.148,0.2903631
5552.147,0.288882
5579.146,0.284358
5606.145,0.288644
5633.144,0.293162
5660.143,0.2819805
5687.142,0.288249
5714.141,0.291707
5741.14,0.28536
5768.139,0.2827632
5795.14,0.286362
5822.137,0.286527
5849.14,0.272336
5876.135,0.284032
5903.134,0.2792943
5930.13,0.272747
5957.132,0.289952
5984.13,0.277023
6011.13,0.275824
6038.129,0.273171
6065.13,0.283857
6092.13,0.2742484
6119.126,0.275662
6146.125,0.26625
6173.124,0.262143
6200.12,0.28853
6227.12,0.277301
6254.121,0.2820411
6281.12,0.273269
6308.12,0.279392
6335.118,0.260643
6362.12,0.293039
6389.116,0.288429
6416.115,0.259752
6443.113,0.270335
6470.11,0.284847
6497.111,0.2652195
6524.11,0.304579
6551.109,0.291255
6578.108,0.293657
6605.107,0.2936757
6632.106,0.2882171
6659.105,0.286711
6686.104,0.293005
6713.104,0.278406
6740.102,0.274846
6767.101,0.2738235
6794.1,0.279296
6821.099,0.293228
6848.1,0.295349
6875.097,0.304486
6902.096,0.299799
6929.095,0.316249
6956.094,0.283691
6983.09,0.2885544
7010.092,0.297835
7037.09,0.292222
7064.09,0.2887252
7091.089,0.318006
7118.09,0.348061
7145.09,0.3329443
7172.09,0.337301
7199.085,0.346908
7226.084,0.2830227
7253.08,0.298189
7280.08,0.340111
7307.081,0.312991
7334.08,0.32452
7361.08,0.320408
7388.078,0.355941
7415.08,0.345857
7442.076,0.3284339
7469.075,0.279133
7496.07,0.373703
7523.073,0.372791
7550.07,0.372249
7577.071,0.313269
7604.07,0.426492
7631.068,0.497366
7658.07,0.346783
7685.066,0.352669
7712.065,0.585991
7739.064,0.350582
7766.063,0.28577
7793.063,0.6140619
7820.062,1.720549
7847.061,0.426464
7874.06,0.417989
7901.059,0.810735
7928.057,1.43681
7955.056,1.29045
7982.055,0.774717
8009.054,1.21026
8036.05,0.781405
8063.052,1.3762
8090.05,1.06295
8117.05,0.549454
8144.049,1.02704
8171.05,0.899468
8198.05,1.05545
8225.046,1.4448
8252.045,1.59358
8279.044,1.76178
8306.043,1.59877
8333.042,0.781079
8360.041,1.497
8387.04,2.30138
8414.039,0.976298
8441.038,2.30869
8468.037,2.03483
8495.036,1.38623
8500.821,1.56611