Folder: Basalt_Carbonate_Baselines/Glass FTIR Baseline Share With Sarah 2023/Dans_Examples

File: CL05MI01.csv
449.3401,4.498231
476.3391,1.64813
503.3381,1.28371
530.3371,2.8142
557.3361,1.52673
584.335,2.289374
611.334,2.42364
638.333,3.77901
665.332,4.4533
692.3309,4.00843
719.33,3.988084
746.3289,3.22826
773.3279,3.73963
800.3269,3.3615
827.3259,3.67463
854.3248,3.73411
881.3238,3.32287
908.3228,3.529659
935.3218,4.702115
962.3207,5.62187
989.3197,4.607246
1016.319,4.7917
1043.318,4.15235
1070.317,3.50791
1097.316,5.13854
1124.315,3.309905
1151.31,3.71332
1178.313,4.045887
1205.312,3.85945
1232.31,2.9049
1259.31,2.08991
1286.308,1.51874
1313.307,1.224686
1340.307,1.06845
1367.305,0.982942
1394.3,0.952323
1421.3,0.950813
1448.3,0.932278
1475.3,0.896855
1502.3,0.921755
1529.299,0.932882
1556.3,0.919939
1583.297,0.952725
1610.296,1.205837
1637.295,1.60843
1664.29,1.28181
1691.293,0.932496
1718.29,0.806125
1745.29,0.750724
1772.29,0.7155675
1799.289,0.690117
1826.29,0.668022
1853.287,0.6484571
1880.286,0.629215
1907.285,0.608042
1934.28,0.5846768
1961.283,0.560913
1988.28,0.539811
2015.281,0.523211
2042.28,0.5108493
2069.279,0.501241
2096.278,0.493543
2123.277,0.486439
2150.276,0.481348
2177.275,0.479454
2204.274,0.4800577
2231.27,0.482396
2258.272,0.487267
2285.271,0.493135
2312.27,0.49848
2339.269,0.50329
2366.268,0.5050279
2393.27,0.510958
2420.266,0.507871
2447.265,0.502327
2474.264,0.495427
2501.262,0.490952
2528.261,0.490588
2555.26,0.4973848
2582.26,0.512151
2609.259,0.5340534
2636.258,0.5626381
2663.256,0.597868
2690.255,0.6393544
2717.25,0.68594
2744.25,0.7389177
2771.252,0.7975973
2798.25,0.862088
2825.25,0.9348429
2852.25,1.01109
2879.248,1.092905
2906.25,1.18459
2933.25,1.2768
2960.245,1.378469
2987.244,1.48755
3014.243,1.5966
3041.242,1.72146
3068.241,1.864228
3095.24,1.97464
3122.239,2.13579
3149.238,2.287454
3176.237,2.43399
3203.236,2.58159
3230.235,2.65824
3257.23,2.68299
3284.23,2.83649
3311.232,3.33515
3338.23,3.03712
3365.23,4.21101
3392.23,3.83814
3419.228,3.13936
3446.23,3.53319
3473.23,3.213298
3500.225,3.16587
3527.224,3.871959
3554.223,4.83461
3581.222,4.51487
3608.22,3.204445
3635.22,2.04504
3662.219,1.11414
3689.218,0.6237783
3716.217,0.424198
3743.216,0.350852
3770.215,0.3293363
3797.21,0.317833
3824.21,0.311437
3851.211,0.3072869
3878.21,0.306096
3905.21,0.305436
3932.208,0.304212
3959.208,0.303568
3986.21,0.302494
4013.205,0.300576
4040.204,0.298504
4067.203,0.296908
4094.202,0.295159
4121.201,0.292734
4148.2,0.291491
4175.2,0.2911522
4202.198,0.291846
4229.197,0.291714
4256.196,0.293556
4283.195,0.2945274
4310.194,0.297303
4337.193,0.301711
4364.192,0.307172
4391.191,0.312869
4418.19,0.3184896
4445.189,0.32361
4472.188,0.328502
4499.187,0.331732
4526.186,0.3325859
4553.185,0.330009
4580.184,0.32894
4607.183,0.329463
4634.182,0.328818
4661.181,0.3336155
4688.18,0.335891
4715.179,0.340194
4742.178,0.3428803
4769.177,0.347404
4796.18,0.350287
4823.175,0.3532248
4850.174,0.3551091
4877.173,0.3577287
4904.17,0.3616132
4931.17,0.365668
4958.169,0.369674
4985.168,0.373272
5012.167,0.376702
5039.167,0.382001
5066.166,0.386309
5093.165,0.390809
5120.16,0.396825
5147.163,0.401709
5174.162,0.406299
5201.161,0.408142
5228.16,0.4081804
5255.158,0.404404
5282.16,0.3990362
5309.156,0.395996
5336.155,0.396983
5363.154,0.396723
5390.153,0.397942
5417.15,0.396837
5444.151,0.397802
5471.15,0.399306
5498.149,0.399601
5525.148,0.399481
5552.147,0.400481
5579.146,0.402506
5606.145,0.402114
5633.144,0.4011754
5660.143,0.401213
5687.142,0.400181
5714.141,0.402367
5741.14,0.398033
5768.139,0.398288
5795.14,0.395202
5822.137,0.395208
5849.14,0.392653
5876.135,0.390626
5903.134,0.391522
5930.13,0.39157
5957.132,0.390438
5984.13,0.390596
6011.13,0.391904
6038.129,0.3921348
6065.13,0.390653
6092.13,0.39399
6119.126,0.392779
6146.125,0.3939994
6173.124,0.3899955
6200.12,0.389537
6227.12,0.390746
6254.121,0.38874
6281.12,0.3912502
6308.12,0.38712
6335.118,0.386415
6362.12,0.386953
6389.116,0.387477
6416.115,0.3892686
6443.113,0.388028
6470.11,0.392059
6497.111,0.393832
6524.11,0.3945555
6551.109,0.3974781
6578.108,0.402691
6605.107,0.402079
6632.106,0.408406
6659.105,0.402191
6686.104,0.407996
6713.104,0.4133909
6740.102,0.410559
6767.101,0.418253
6794.1,0.416909
6821.099,0.422925
6848.1,0.427992
6875.097,0.419061
6902.096,0.427188
6929.095,0.439158
6956.094,0.447405
6983.09,0.4451592
7010.092,0.459087
7037.09,0.4550903
7064.09,0.4533745
7091.089,0.46873
7118.09,0.463649
7145.09,0.471008
7172.09,0.4752053
7199.085,0.476278
7226.084,0.4747785
7253.08,0.483079
7280.08,0.480291
7307.081,0.494887
7334.08,0.499387
7361.08,0.4959
7388.078,0.494822
7415.08,0.506753
7442.076,0.52585
7469.075,0.502185
7496.07,0.539489
7523.073,0.5190156
7550.07,0.539641
7577.071,0.550962
7604.07,0.520864
7631.068,0.5454182
7658.07,0.5446755
7685.066,0.560502
7712.065,0.572115
7739.064,0.582942
7766.063,0.580675
7793.063,0.5770991
7820.062,0.601284
7847.061,0.597916
7874.06,0.620884
7901.059,0.604592
7928.057,0.648698
7955.056,0.674361
7982.055,0.66118
8009.054,0.58984
8036.05,0.597586
8063.052,0.645688
8090.05,0.649866
8117.05,0.610644
8144.049,0.725167
8171.05,0.7092872
8198.05,0.732971
8225.046,0.7326174
8252.045,0.706741
8279.044,0.7152034
8306.043,0.758273
8333.042,0.719621
8360.041,0.954937
8387.04,1.13449
8414.039,1.19063
8441.038,1.03279
8468.037,1.25763
8495.036,1.58593
8500.821,0.774918

File: CL05MI02.csv
449.3401,1.283671
476.3391,1.10976
503.3381,0.885967
530.3371,0.902789
557.3361,0.66334
584.335,1.05293
611.334,1.32574
638.333,1.90537
665.332,3.42557
692.3309,4.56872
719.33,3.4394
746.3289,3.02804
773.3279,2.66209
800.3269,2.753451
827.3259,2.56346
854.3248,2.731405
881.3238,2.88222
908.3228,3.19696
935.3218,3.6737
962.3207,4.74843
989.3197,5.53902
1016.319,5.84982
1043.318,3.519816
1070.317,3.76333
1097.316,3.81962
1124.315,3.19141
1151.31,3.03064
1178.313,2.95026
1205.312,3.02134
1232.31,2.39505
1259.31,1.6155
1286.308,1.23998
1313.307,1.01634
1340.307,0.9022162
1367.305,0.852913
1394.3,0.849037
1421.3,0.858555
1448.3,0.832192
1475.3,0.781555
1502.3,0.8018428
1529.299,0.8001128
1556.3,0.757838
1583.297,0.738403
1610.296,0.850759
1637.295,1.05293
1664.29,0.8632009
1691.293,0.664758
1718.29,0.58105
1745.29,0.546565
1772.29,0.52392
1799.289,0.503765
1826.29,0.4841
1853.287,0.4614808
1880.286,0.441431
1907.285,0.418527
1934.28,0.392299
1961.283,0.370008
1988.28,0.348689
2015.281,0.329881
2042.28,0.316398
2069.279,0.305235
2096.278,0.296297
2123.277,0.291162
2150.276,0.286734
2177.275,0.284803
2204.274,0.2861345
2231.27,0.2876268
2258.272,0.290586
2285.271,0.295022
2312.27,0.298026
2339.269,0.300924
2366.268,0.301616
2393.27,0.299934
2420.266,0.297376
2447.265,0.291977
2474.264,0.286345
2501.262,0.283113
2528.261,0.283265
2555.26,0.288785
2582.26,0.299711
2609.259,0.31529
2636.258,0.336537
2663.256,0.360996
2690.255,0.389285
2717.25,0.422054
2744.25,0.456909
2771.252,0.495704
2798.25,0.5385199
2825.25,0.583656
2852.25,0.632525
2879.248,0.686304
2906.25,0.742234
2933.25,0.8044359
2960.245,0.869809
2987.244,0.937146
3014.243,1.01044
3041.242,1.08688
3068.241,1.16507
3095.24,1.249795
3122.239,1.33861
3149.238,1.42709
3176.237,1.52657
3203.236,1.61469
3230.235,1.70615
3257.23,1.77895
3284.23,1.842
3311.232,1.94076
3338.23,2.022507
3365.23,2.08764
3392.23,2.16476
3419.228,2.20548
3446.23,2.26032
3473.23,2.3434
3500.225,2.36064
3527.224,2.36052
3554.223,2.32877
3581.222,2.22353
3608.22,1.87246
3635.22,1.296523
3662.219,0.750049
3689.218,0.447637
3716.217,0.318548
3743.216,0.267392
3770.215,0.251521
3797.21,0.241884
3824.21,0.237421
3851.211,0.231605
3878.21,0.229684
3905.21,0.2282616
3932.208,0.224857
3959.208,0.223338
3986.21,0.221495
4013.205,0.217824
4040.204,0.216314
4067.203,0.2121669
4094.202,0.207729
4121.201,0.206192
4148.2,0.20236
4175.2,0.200368
4202.198,0.19919
4229.197,0.196108
4256.196,0.196927
4283.195,0.196098
4310.194,0.196252
4337.193,0.198314
4364.192,0.200815
4391.191,0.2038531
4418.19,0.206617
4445.189,0.209465
4472.188,0.212354
4499.187,0.213664
4526.186,0.2122798
4553.185,0.2100819
4580.184,0.2077363
4607.183,0.208174
4634.182,0.2084982
4661.181,0.2099515
4688.18,0.2124007
4715.179,0.21454
4742.178,0.217975
4769.177,0.220672
4796.18,0.223587
4823.175,0.227195
4850.174,0.2301235
4877.173,0.233499
4904.17,0.237169
4931.17,0.241279
4958.169,0.245838
4985.168,0.249838
5012.167,0.253024
5039.167,0.25792
5066.166,0.262236
5093.165,0.265825
5120.16,0.269881
5147.163,0.275798
5174.162,0.280601
5201.161,0.283394
5228.16,0.287496
5255.158,0.285622
5282.16,0.285566
5309.156,0.286105
5336.155,0.2898195
5363.154,0.290128
5390.153,0.294359
5417.15,0.296436
5444.151,0.298907
5471.15,0.301241
5498.149,0.301582
5525.148,0.303897
5552.147,0.304831
5579.146,0.305781
5606.145,0.307304
5633.144,0.306678
5660.143,0.30861
5687.142,0.309905
5714.141,0.309861
5741.14,0.310253
5768.139,0.309948
5795.14,0.310026
5822.137,0.3107695
5849.14,0.310645
5876.135,0.310235
5903.134,0.309187
5930.13,0.309995
5957.132,0.3068037
5984.13,0.309499
6011.13,0.306673
6038.129,0.306026
6065.13,0.305735
6092.13,0.3034103
6119.126,0.302486
6146.125,0.304564
6173.124,0.302378
6200.12,0.299107
6227.12,0.301649
6254.121,0.298359
6281.12,0.29684
6308.12,0.295703
6335.118,0.296648
6362.12,0.295413
6389.116,0.294559
6416.115,0.295647
6443.113,0.293568
6470.11,0.294221
6497.111,0.293397
6524.11,0.2927376
6551.109,0.293179
6578.108,0.2987247
6605.107,0.297987
6632.106,0.299083
6659.105,0.296793
6686.104,0.296369
6713.104,0.301056
6740.102,0.302398
6767.101,0.3023039
6794.1,0.303675
6821.099,0.304666
6848.1,0.306244
6875.097,0.306632
6902.096,0.313634
6929.095,0.314974
6956.094,0.3182113
6983.09,0.322988
7010.092,0.321734
7037.09,0.329421
7064.09,0.334188
7091.089,0.334401
7118.09,0.335665
7145.09,0.3382882
7172.09,0.340096
7199.085,0.3484866
7226.084,0.3428077
7253.08,0.359936
7280.08,0.363026
7307.081,0.369438
7334.08,0.3693938
7361.08,0.376796
7388.078,0.386254
7415.08,0.382363
7442.076,0.379143
7469.075,0.395502
7496.07,0.399513
7523.073,0.4093169
7550.07,0.415462
7577.071,0.408009
7604.07,0.426278
7631.068,0.429187
7658.07,0.430538
7685.066,0.440107
7712.065,0.42114
7739.064,0.459992
7766.063,0.448871
7793.063,0.455921
7820.062,0.4735003
7847.061,0.4665342
7874.06,0.4712486
7901.059,0.507935
7928.057,0.513954
7955.056,0.496634
7982.055,0.5373816
8009.054,0.527032
8036.05,0.486991
8063.052,0.491423
8090.05,0.51846
8117.05,0.532458
8144.049,0.535007
8171.05,0.615257
8198.05,0.571915
8225.046,0.549816
8252.045,0.556262
8279.044,0.6013052
8306.043,0.590756
8333.042,0.653256
8360.041,0.636074
8387.04,0.875629
8414.039,0.996742
8441.038,1.31815
8468.037,1.15057
8495.036,0.848967
8500.821,0.5462117

File: CL05MI08.csv
449.3401,2.794
476.3391,1.10928
503.3381,2.04725
530.3371,0.284073
557.3361,1.3175
584.335,1.61869
611.334,2.85065
638.333,2.47774
665.332,3.68818
692.3309,4.14833
719.33,4.204491
746.3289,4.49702
773.3279,3.693308
800.3269,3.84215
827.3259,3.654411
854.3248,4.08016
881.3238,2.89306
908.3228,3.423117
935.3218,4.94669
962.3207,4.44674
989.3197,3.55939
1016.319,4.35447
1043.318,2.781803
1070.317,3.21189
1097.316,2.40898
1124.315,2.29304
1151.31,2.20875
1178.313,2.101047
1205.312,2.04373
1232.31,1.52486
1259.31,1.01604
1286.308,0.823836
1313.307,0.730108
1340.307,0.6734382
1367.305,0.644991
1394.3,0.63595
1421.3,0.635461
1448.3,0.6200078
1475.3,0.591154
1502.3,0.599019
1529.299,0.6072945
1556.3,0.588401
1583.297,0.601472
1610.296,0.695939
1637.295,0.8659544
1664.29,0.732487
1691.293,0.560685
1718.29,0.4926432
1745.29,0.46441
1772.29,0.44988
1799.289,0.44295
1826.29,0.435668
1853.287,0.4234558
1880.286,0.4151537
1907.285,0.394516
1934.28,0.379675
1961.283,0.361312
1988.28,0.345066
2015.281,0.33601
2042.28,0.327697
2069.279,0.3213396
2096.278,0.322193
2123.277,0.321171
2150.276,0.319932
2177.275,0.3209882
2204.274,0.3161571
2231.27,0.31662
2258.272,0.31361
2285.271,0.314421
2312.27,0.314466
2339.269,0.317287
2366.268,0.3185399
2393.27,0.317135
2420.266,0.316114
2447.265,0.3108107
2474.264,0.307372
2501.262,0.301253
2528.261,0.299817
2555.26,0.299103
2582.26,0.304899
2609.259,0.3133344
2636.258,0.325131
2663.256,0.340382
2690.255,0.357003
2717.25,0.37595
2744.25,0.395879
2771.252,0.418586
2798.25,0.440809
2825.25,0.4683796
2852.25,0.496829
2879.248,0.525594
2906.25,0.5597456
2933.25,0.59626
2960.245,0.633101
2987.244,0.674554
3014.243,0.713617
3041.242,0.75715
3068.241,0.799576
3095.24,0.843247
3122.239,0.88762
3149.238,0.932104
3176.237,0.970536
3203.236,1.00996
3230.235,1.04463
3257.23,1.07117
3284.23,1.09524
3311.232,1.12318
3338.23,1.15384
3365.23,1.17324
3392.23,1.18721
3419.228,1.20147
3446.23,1.213324
3473.23,1.22518
3500.225,1.22977
3527.224,1.232
3554.223,1.24219
3581.222,1.20021
3608.22,1.09718
3635.22,0.846666
3662.219,0.547376
3689.218,0.362052
3716.217,0.28099
3743.216,0.248636
3770.215,0.2362699
3797.21,0.229788
3824.21,0.226605
3851.211,0.221569
3878.21,0.220458
3905.21,0.2190479
3932.208,0.219871
3959.208,0.2199805
3986.21,0.219409
4013.205,0.219371
4040.204,0.217323
4067.203,0.214848
4094.202,0.214316
4121.201,0.211529
4148.2,0.209084
4175.2,0.210218
4202.198,0.209796
4229.197,0.209719
4256.196,0.209489
4283.195,0.209716
4310.194,0.210471
4337.193,0.21292
4364.192,0.215174
4391.191,0.217597
4418.19,0.2183723
4445.189,0.2184254
4472.188,0.221744
4499.187,0.221364
4526.186,0.2230233
4553.185,0.2225554
4580.184,0.2217194
4607.183,0.219417
4634.182,0.219772
4661.181,0.221479
4688.18,0.2205634
4715.179,0.2212071
4742.178,0.22727
4769.177,0.224103
4796.18,0.225111
4823.175,0.228103
4850.174,0.228202
4877.173,0.229089
4904.17,0.231525
4931.17,0.231557
4958.169,0.232936
4985.168,0.237673
5012.167,0.2342755
5039.167,0.236539
5066.166,0.242405
5093.165,0.239148
5120.16,0.2437
5147.163,0.243208
5174.162,0.246242
5201.161,0.248312
5228.16,0.2477925
5255.158,0.241922
5282.16,0.241809
5309.156,0.238883
5336.155,0.244838
5363.154,0.240108
5390.153,0.239161
5417.15,0.240558
5444.151,0.241522
5471.15,0.242842
5498.149,0.238151
5525.148,0.2407137
5552.147,0.2421736
5579.146,0.241246
5606.145,0.242136
5633.144,0.2390129
5660.143,0.24094
5687.142,0.239205
5714.141,0.23873
5741.14,0.237657
5768.139,0.2352346
5795.14,0.238523
5822.137,0.234493
5849.14,0.241713
5876.135,0.239653
5903.134,0.236642
5930.13,0.237933
5957.132,0.237213
5984.13,0.2363309
6011.13,0.241204
6038.129,0.233408
6065.13,0.236646
6092.13,0.238227
6119.126,0.234633
6146.125,0.239789
6173.124,0.238758
6200.12,0.235441
6227.12,0.230468
6254.121,0.233251
6281.12,0.226172
6308.12,0.238929
6335.118,0.234758
6362.12,0.235756
6389.116,0.241323
6416.115,0.239782
6443.113,0.235238
6470.11,0.232649
6497.111,0.2443839
6524.11,0.2426249
6551.109,0.237804
6578.108,0.2342142
6605.107,0.233432
6632.106,0.243107
6659.105,0.236937
6686.104,0.243759
6713.104,0.238905
6740.102,0.2332573
6767.101,0.248941
6794.1,0.245116
6821.099,0.237224
6848.1,0.247802
6875.097,0.255251
6902.096,0.254309
6929.095,0.253975
6956.094,0.2564586
6983.09,0.259547
7010.092,0.262824
7037.09,0.262064
7064.09,0.257777
7091.089,0.265374
7118.09,0.272136
7145.09,0.2755075
7172.09,0.290927
7199.085,0.2622125
7226.084,0.266939
7253.08,0.282914
7280.08,0.274442
7307.081,0.268301
7334.08,0.274731
7361.08,0.273898
7388.078,0.2744103
7415.08,0.28613
7442.076,0.286947
7469.075,0.280411
7496.07,0.266478
7523.073,0.264386
7550.07,0.2902537
7577.071,0.277918
7604.07,0.2918509
7631.068,0.302151
7658.07,0.2953902
7685.066,0.278791
7712.065,0.314274
7739.064,0.331822
7766.063,0.2952781
7793.063,0.329279
7820.062,0.368622
7847.061,0.334455
7874.06,0.354559
7901.059,0.281523
7928.057,0.367163
7955.056,0.401843
7982.055,0.249491
8009.054,0.429322
8036.05,0.332538
8063.052,0.305642
8090.05,0.378967
8117.05,0.379122
8144.049,0.247619
8171.05,0.238275
8198.05,0.612609
8225.046,0.913528
8252.045,0.896415
8279.044,0.675806
8306.043,0.506817
8333.042,1.14023
8360.041,0.874612
8387.04,0.405906
8414.039,1.67787
8441.038,0.366075
8468.037,1.13309
8495.036,0.865046
8500.821,2.16813

File: CV04MI03.csv
449.3401,0.804911
476.3391,0.784152
503.3381,0.739204
530.3371,0.606618
557.3361,0.5288969
584.335,0.731973
611.334,1.0936
638.333,1.40325
665.332,1.67236
692.3309,1.69732
719.33,1.857852
746.3289,2.056294
773.3279,2.20818
800.3269,2.17601
827.3259,2.271566
854.3248,2.36424
881.3238,2.34706
908.3228,2.39148
935.3218,2.520476
962.3207,2.608337
989.3197,3.768888
1016.319,2.80738
1043.318,2.87866
1070.317,3.11224
1097.316,3.09505
1124.315,3.371
1151.31,3.120302
1178.313,3.19741
1205.312,3.59632
1232.31,1.58571
1259.31,0.960992
1286.308,0.71486
1313.307,0.584108
1340.307,0.515171
1367.305,0.499583
1394.3,0.541018
1421.3,0.6061351
1448.3,0.6060567
1475.3,0.560119
1502.3,0.612305
1529.299,0.5977337
1556.3,0.541514
1583.297,0.524331
1610.296,0.628622
1637.295,0.80199
1664.29,0.6387671
1691.293,0.465495
1718.29,0.402135
1745.29,0.3720163
1772.29,0.3549875
1799.289,0.339901
1826.29,0.324819
1853.287,0.3118905
1880.286,0.29784
1907.285,0.284586
1934.28,0.271407
1961.283,0.257747
1988.28,0.24549
2015.281,0.239187
2042.28,0.229908
2069.279,0.230109
2096.278,0.226343
2123.277,0.226988
2150.276,0.231724
2177.275,0.231205
2204.274,0.241867
2231.27,0.243694
2258.272,0.253644
2285.271,0.261335
2312.27,0.2622431
2339.269,0.269853
2366.268,0.264985
2393.27,0.2809003
2420.266,0.281596
2447.265,0.277538
2474.264,0.282345
2501.262,0.2767001
2528.261,0.2830855
2555.26,0.287352
2582.26,0.2924635
2609.259,0.307651
2636.258,0.3162126
2663.256,0.3331426
2690.255,0.3497842
2717.25,0.3670449
2744.25,0.390056
2771.252,0.411774
2798.25,0.4375057
2825.25,0.466394
2852.25,0.4981764
2879.248,0.532455
2906.25,0.571408
2933.25,0.613781
2960.245,0.658386
2987.244,0.70533
3014.243,0.756237
3041.242,0.815577
3068.241,0.877044
3095.24,0.9431658
3122.239,1.0145
3149.238,1.0886
3176.237,1.16693
3203.236,1.24517
3230.235,1.31737
3257.23,1.37857
3284.23,1.4409
3311.232,1.51005
3338.23,1.5963
3365.23,1.67901
3392.23,1.74235
3419.228,1.79359
3446.23,1.83935
3473.23,1.88354
3500.225,1.9115
3527.224,1.89182
3554.223,1.84889
3581.222,1.73388
3608.22,1.41075
3635.22,0.9481655
3662.219,0.525923
3689.218,0.300936
3716.217,0.209775
3743.216,0.1738568
3770.215,0.162211
3797.21,0.154931
3824.21,0.1485
3851.211,0.14379
3878.21,0.142009
3905.21,0.138184
3932.208,0.1371631
3959.208,0.133938
3986.21,0.132401
4013.205,0.131278
4040.204,0.127607
4067.203,0.1277023
4094.202,0.1245953
4121.201,0.1241822
4148.2,0.123831
4175.2,0.1210644
4202.198,0.124205
4229.197,0.123517
4256.196,0.126196
4283.195,0.128703
4310.194,0.1302909
4337.193,0.134726
4364.192,0.138081
4391.191,0.142539
4418.19,0.146343
4445.189,0.1495888
4472.188,0.152708
4499.187,0.154248
4526.186,0.153929
4553.185,0.15231
4580.184,0.150474
4607.183,0.1504038
4634.182,0.1486853
4661.181,0.149641
4688.18,0.1484621
4715.179,0.148281
4742.178,0.1483053
4769.177,0.146708
4796.18,0.148666
4823.175,0.147445
4850.174,0.146021
4877.173,0.146663
4904.17,0.145404
4931.17,0.145864
4958.169,0.145239
4985.168,0.145469
5012.167,0.147985
5039.167,0.146642
5066.166,0.1494187
5093.165,0.150261
5120.16,0.151625
5147.163,0.154886
5174.162,0.155999
5201.161,0.158367
5228.16,0.158854
5255.158,0.156688
5282.16,0.155602
5309.156,0.153839
5336.155,0.156439
5363.154,0.158079
5390.153,0.1584384
5417.15,0.1602924
5444.151,0.161534
5471.15,0.1619617
5498.149,0.161941
5525.148,0.164223
5552.147,0.163568
5579.146,0.163126
5606.145,0.1638258
5633.144,0.1636946
5660.143,0.163555
5687.142,0.163289
5714.141,0.161661
5741.14,0.162295
5768.139,0.161586
5795.14,0.161479
5822.137,0.158796
5849.14,0.157265
5876.135,0.158414
5903.134,0.155855
5930.13,0.155818
5957.132,0.1554472
5984.13,0.1535309
6011.13,0.153152
6038.129,0.152497
6065.13,0.152581
6092.13,0.152503
6119.126,0.151652
6146.125,0.153425
6173.124,0.152008
6200.12,0.1535451
6227.12,0.154944
6254.121,0.154024
6281.12,0.153979
6308.12,0.157635
6335.118,0.157822
6362.12,0.156623
6389.116,0.159543
6416.115,0.158772
6443.113,0.159018
6470.11,0.160412
6497.111,0.1637123
6524.11,0.162989
6551.109,0.163495
6578.108,0.165592
6605.107,0.165978
6632.106,0.167347
6659.105,0.166727
6686.104,0.166799
6713.104,0.1673675
6740.102,0.167164
6767.101,0.167048
6794.1,0.1676872
6821.099,0.171804
6848.1,0.173603
6875.097,0.174117
6902.096,0.1768043
6929.095,0.173625
6956.094,0.177261
6983.09,0.18064
7010.092,0.178321
7037.09,0.1791651
7064.09,0.183813
7091.089,0.187942
7118.09,0.186123
7145.09,0.1856995
7172.09,0.1841613
7199.085,0.189932
7226.084,0.194362
7253.08,0.195222
7280.08,0.195559
7307.081,0.193152
7334.08,0.199063
7361.08,0.2031387
7388.078,0.192948
7415.08,0.202415
7442.076,0.200936
7469.075,0.203686
7496.07,0.1987753
7523.073,0.211771
7550.07,0.2088903
7577.071,0.213889
7604.07,0.21182
7631.068,0.222052
7658.07,0.2208198
7685.066,0.228757
7712.065,0.225533
7739.064,0.228253
7766.063,0.2198447
7793.063,0.223409
7820.062,0.2396696
7847.061,0.243294
7874.06,0.228966
7901.059,0.234149
7928.057,0.236938
7955.056,0.249307
7982.055,0.237812
8009.054,0.24723
8036.05,0.234723
8063.052,0.2500766
8090.05,0.2606093
8117.05,0.269965
8144.049,0.247291
8171.05,0.285912
8198.05,0.2598012
8225.046,0.274851
8252.045,0.307171
8279.044,0.258795
8306.043,0.288213
8333.042,0.323304
8360.041,0.316621
8387.04,0.316569
8414.039,0.335081
8441.038,0.338787
8468.037,0.356518
8495.036,0.311223
8500.821,0.358994