Folder: Basalt_Carbonate_Baselines/Glass FTIR Baseline Share With Sarah 2023/Files from 1_19_23 (part 2)

File: Water_Peak_1635.csv
Wavenumber,Average_1630_Peak,1630_Peak_PCA_1,1630_Peak_PCA_2,1630_Peak_PCA_3
1276.666,0.0,0.0,0.0,0.0
1280.523,0.0,0.0,0.0,0.0
1284.38,0.0,0.0,0.0,0.0
1288.237,0.0,0.0,0.0,0.0
1292.094,0.0,0.0,0.0,0.0
1295.951,0.0,0.0,0.0,0.0
1299.808,0.0,0.0,0.0,0.0
1303.665,0.0,0.0,0.0,0.0
1307.522,0.0,0.0,0.0,0.0
1311.379,0.0,0.0,0.0,0.0
1315.236,0.0,0.0,0.0,0.0
1319.093,0.0,0.0,0.0,0.0
1322.95,0.0,0.0,0.0,0.0
1326.807,0.0,0.0,0.0,0.0
1330.664,0.0,0.0,0.0,0.0
1334.521,0.0,0.0,0.0,0.0
1338.378,0.0,0.0,0.0,0.0
1342.235,0.0,0.0,0.0,0.0
1346.092,0.0,0.0,0.0,0.0
1349.949,0.0,0.0,0.0,0.0
1353.806,0.0,0.0,0.0,0.0
1357.663,0.0,0.0,0.0,0.0
1361.52,0.0,0.0,0.0,0.0
1365.377,0.0,0.0,0.0,0.0
1369.234,0.0,0.0,0.0,0.0
1373.091,0.0,0.0,0.0,0.0
1376.948,0.0,0.0,0.0,0.0
1380.805,0.0,0.0,0.0,0.0
1384.662,0.0,0.0,0.0,0.0
1388.519,0.0,0.0,0.0,0.0
1392.376,0.0,0.0,0.0,0.0
1396.233,0.0,0.0,0.0,0.0
1400.09,0.0,0.0,0.0,0.0
1403.947,0.0,0.0,0.0,0.0
1407.804,0.0,0.0,0.0,0.0
1411.661,0.0,0.0,0.0,0.0
1415.518,0.0,0.0,0.0,0.0
1419.375,0.0,0.0,0.0,0.0
1423.232,0.0,0.0,0.0,0.0
1427.089,0.0,0.0,0.0,0.0
1430.946,0.0,0.0,0.0,0.0
1434.803,0.0,0.0,0.0,0.0
1438.66,0.0,0.0,0.0,0.0
1442.517,0.0,0.0,0.0,0.0
1446.374,0.0,0.0,0.0,0.0
1450.231,0.0,0.0,0.0,0.0
1454.088,0.031838,0.00559358,-0.000870835,-0.00442433
1457.945,0.0318241,0.00347663,3.52228e-05,-0.00879144
1461.802,0.0295637,0.00102856,0.00116171,-0.0141851
1465.659,0.0271486,-0.00161625,0.00180027,-0.0221569
1469.516,0.024895,-0.00433068,0.00190707,-0.031448
1473.373,0.0246998,-0.00710351,0.00119918,-0.04037
1477.23,0.0248042,-0.00926542,0.000501916,-0.0452482
1481.087,0.0255608,-0.0107922,-0.00118798,-0.0467032
1484.944,0.0279932,-0.0118629,-0.00457718,-0.0446919
1488.801,0.0300713,-0.0127877,-0.00993732,-0.0402849
1492.658,0.0329972,-0.013521,-0.0166784,-0.0343404
1496.515,0.0337054,-0.0141341,-0.0243646,-0.0283566
1500.372,0.0309927,-0.0147756,-0.0330075,-0.0235952
1504.229,0.0311912,-0.0155146,-0.0417685,-0.0207478
1508.086,0.0343886,-0.0166821,-0.0502162,-0.020829
1511.943,0.0364809,-0.018846,-0.0586764,-0.0254792
1515.8,0.0398154,-0.0212046,-0.0647623,-0.0294372
1519.657,0.0440296,-0.0237677,-0.0688122,-0.0324702
1523.514,0.0467002,-0.0264095,-0.0718078,-0.0342013
1527.371,0.0513844,-0.0291028,-0.0749624,-0.0350096
1531.228,0.0542571,-0.0314758,-0.0780911,-0.0331758
1535.085,0.0579192,-0.0337743,-0.0820001,-0.0296526
1538.942,0.06077,-0.0362384,-0.0871618,-0.026555
1542.799,0.065264,-0.0389179,-0.0930812,-0.0258432
1546.656,0.0712392,-0.0418551,-0.0984033,-0.0281722
1550.513,0.0755045,-0.0450115,-0.102539,-0.0352151
1554.37,0.0814344,-0.0482336,-0.104388,-0.0448607
1558.227,0.0863795,-0.0515875,-0.104502,-0.057538
1562.084,0.0950427,-0.0553296,-0.101951,-0.069626
1565.941,0.104882,-0.0593501,-0.0974194,-0.0805718
1569.798,0.116384,-0.0635352,-0.0913662,-0.0899035
1573.655,0.12747,-0.0678552,-0.0848962,-0.0964953
1577.512,0.140053,-0.0721079,-0.0791335,-0.100277
1581.369,0.156117,-0.0761745,-0.0751284,-0.102235
1585.226,0.174876,-0.0799293,-0.073851,-0.102229
1589.083,0.199087,-0.0833734,-0.0761509,-0.100815
1592.94,0.229472,-0.0856183,-0.0816152,-0.100178
1596.797,0.267254,-0.0860969,-0.0885091,-0.101091
1600.654,0.316534,-0.0834259,-0.0936944,-0.10284
1604.511,0.375936,-0.0771164,-0.0950908,-0.107987
1608.368,0.449883,-0.0666886,-0.0894906,-0.1115
1612.225,0.534984,-0.0529393,-0.0775441,-0.113284
1616.082,0.629813,-0.0376258,-0.0610467,-0.114133
1619.939,0.729948,-0.0227239,-0.0418911,-0.110805
1623.796,0.823452,-0.0106186,-0.0230165,-0.0998295
1627.653,0.902989,-0.00362803,-0.0072727,-0.0797637
1631.51,0.957281,-0.00335496,0.00200414,-0.0535941
1635.367,0.988613,-0.010576,0.00409688,-0.0192869
1639.224,0.987321,-0.0248645,-0.00143421,0.0200489
1643.081,0.963628,-0.0448834,-0.0134328,0.0607772
1646.938,0.916078,-0.0686995,-0.0294158,0.0995439
1650.795,0.85149,-0.0938732,-0.0457264,0.1337
1654.652,0.777812,-0.117677,-0.0590106,0.158877
1658.509,0.700646,-0.137947,-0.0665608,0.172691
1662.366,0.620728,-0.153189,-0.0665055,0.174883
1666.223,0.541719,-0.163035,-0.0588444,0.165818
1670.08,0.466835,-0.167608,-0.0445684,0.147971
1673.937,0.397803,-0.167785,-0.0254844,0.12401
1677.794,0.335601,-0.164949,-0.00434456,0.0969146
1681.651,0.280475,-0.159937,0.0168072,0.0695841
1685.508,0.23567,-0.153559,0.0363805,0.0434133
1689.365,0.196212,-0.146371,0.0539724,0.0210995
1693.222,0.161555,-0.138993,0.0688348,0.00244493
1697.079,0.134393,-0.131487,0.0809849,-0.0135063
1700.936,0.11161,-0.124207,0.0911015,-0.0265622
1704.793,0.092636,-0.116927,0.0994941,-0.0382644
1708.65,0.0780437,-0.110128,0.105806,-0.0519784
1712.507,0.0671142,-0.103345,0.111715,-0.0635319
1716.364,0.058382,-0.0966855,0.116885,-0.0739678
1720.221,0.0521391,-0.0902747,0.121449,-0.083365
1724.078,0.0456976,-0.0840115,0.125342,-0.0909327
1727.935,0.0402064,-0.0778612,0.128684,-0.0945945
1731.792,0.034966,-0.0719958,0.131554,-0.0939707
1735.649,0.0313623,-0.0665175,0.133289,-0.0899621
1739.506,0.0268399,-0.0616378,0.133275,-0.0806232
1743.363,0.0232684,-0.0571608,0.130773,-0.0677409
1747.22,0.0198545,-0.0528246,0.125642,-0.0513359
1751.077,0.0164443,-0.0486833,0.116862,-0.0342089
1754.934,0.0132938,-0.0446219,0.105722,-0.0156849
1758.791,0.0109424,-0.0404849,0.0927841,0.000698853
1762.648,0.00988352,-0.0361825,0.079101,0.0140391
1766.505,0.00822808,-0.0317874,0.0658658,0.0238167
1770.362,0.00696595,-0.0272699,0.0547248,0.0294718
1774.219,0.00607716,-0.0227289,0.0451456,0.0309809
1778.076,0.00410318,-0.0182513,0.0373558,0.0286088
1781.933,0.00267055,-0.0139465,0.0313856,0.0229562
1785.79,0.00104398,-0.00994002,0.0270793,0.014903
1789.647,-0.000422879,-0.0063646,0.024124,0.00552748
1793.504,-0.000403987,-0.00334938,0.0220936,-0.00400149
1797.361,-0.00101968,-0.0010074,0.0205092,-0.0125577
1801.218,-0.000872673,0.000578927,0.0189155,-0.0192168
1805.075,-0.000575606,0.00137423,0.0169735,-0.023441
1808.932,-0.000868113,0.00140854,0.0145691,-0.0252898
1812.789,-0.000525394,0.000797538,0.0119381,-0.0256571
1816.646,-0.000744566,-0.000235307,0.0098072,-0.026533
1820.503,0.0,0.0,0.0,0.0
1824.36,0.0,0.0,0.0,0.0
1828.217,0.0,0.0,0.0,0.0
1832.074,0.0,0.0,0.0,0.0
1835.931,0.0,0.0,0.0,0.0
1839.788,0.0,0.0,0.0,0.0
1843.645,0.0,0.0,0.0,0.0
1847.502,0.0,0.0,0.0,0.0
1851.359,0.0,0.0,0.0,0.0
1855.216,0.0,0.0,0.0,0.0
1859.073,0.0,0.0,0.0,0.0
1862.93,0.0,0.0,0.0,0.0
1866.786,0.0,0.0,0.0,0.0
1870.644,0.0,0.0,0.0,0.0
1874.5,0.0,0.0,0.0,0.0
1878.358,0.0,0.0,0.0,0.0
1882.215,0.0,0.0,0.0,0.0
1886.072,0.0,0.0,0.0,0.0
1889.929,0.0,0.0,0.0,0.0
1893.786,0.0,0.0,0.0,0.0
1897.643,0.0,0.0,0.0,0.0
1901.5,0.0,0.0,0.0,0.0
1905.357,0.0,0.0,0.0,0.0
1909.214,0.0,0.0,0.0,0.0
1913.071,0.0,0.0,0.0,0.0
1916.927,0.0,0.0,0.0,0.0
1920.785,0.0,0.0,0.0,0.0
1924.641,0.0,0.0,0.0,0.0
1928.499,0.0,0.0,0.0,0.0
1932.355,0.0,0.0,0.0,0.0
1936.213,0.0,0.0,0.0,0.0
1940.069,0.0,0.0,0.0,0.0
1943.927,0.0,0.0,0.0,0.0
1947.783,0.0,0.0,0.0,0.0
1951.641,0.0,0.0,0.0,0.0
1955.497,0.0,0.0,0.0,0.0
1959.354,0.0,0.0,0.0,0.0
1963.211,0.0,0.0,0.0,0.0
1967.068,0.0,0.0,0.0,0.0
1970.925,0.0,0.0,0.0,0.0
1974.782,0.0,0.0,0.0,0.0
1978.639,0.0,0.0,0.0,0.0
1982.496,0.0,0.0,0.0,0.0
1986.354,0.0,0.0,0.0,0.0
1990.21,0.0,0.0,0.0,0.0
1994.068,0.0,0.0,0.0,0.0
1997.924,0.0,0.0,0.0,0.0
2001.781,0.0,0.0,0.0,0.0
2005.638,0.0,0.0,0.0,0.0
2009.495,0.0,0.0,0.0,0.0
2013.352,0.0,0.0,0.0,0.0
2017.209,0.0,0.0,0.0,0.0
2021.066,0.0,0.0,0.0,0.0
2024.923,0.0,0.0,0.0,0.0
2028.78,0.0,0.0,0.0,0.0
2032.637,0.0,0.0,0.0,0.0
2036.494,0.0,0.0,0.0,0.0
2040.351,0.0,0.0,0.0,0.0
2044.208,0.0,0.0,0.0,0.0
2048.065,0.0,0.0,0.0,0.0
2051.922,0.0,0.0,0.0,0.0
2055.779,0.0,0.0,0.0,0.0
2059.636,0.0,0.0,0.0,0.0
2063.493,0.0,0.0,0.0,0.0
2067.35,0.0,0.0,0.0,0.0
2071.207,0.0,0.0,0.0,0.0
2075.064,0.0,0.0,0.0,0.0
2078.921,0.0,0.0,0.0,0.0
2082.778,0.0,0.0,0.0,0.0
2086.635,0.0,0.0,0.0,0.0
2090.492,0.0,0.0,0.0,0.0
2094.349,0.0,0.0,0.0,0.0
2098.206,0.0,0.0,0.0,0.0
2102.063,0.0,0.0,0.0,0.0
2105.92,0.0,0.0,0.0,0.0
2109.777,0.0,0.0,0.0,0.0
2113.634,0.0,0.0,0.0,0.0
2117.491,0.0,0.0,0.0,0.0
2121.348,0.0,0.0,0.0,0.0
2125.205,0.0,0.0,0.0,0.0
2129.062,0.0,0.0,0.0,0.0
2132.919,0.0,0.0,0.0,0.0
2136.776,0.0,0.0,0.0,0.0
2140.633,0.0,0.0,0.0,0.0
2144.49,0.0,0.0,0.0,0.0
2148.347,0.0,0.0,0.0,0.0
2152.204,0.0,0.0,0.0,0.0
2156.061,0.0,0.0,0.0,0.0
2159.918,0.0,0.0,0.0,0.0
2163.775,0.0,0.0,0.0,0.0
2167.632,0.0,0.0,0.0,0.0
2171.489,0.0,0.0,0.0,0.0
2175.346,0.0,0.0,0.0,0.0
2179.203,0.0,0.0,0.0,0.0
2183.06,0.0,0.0,0.0,0.0
2186.917,0.0,0.0,0.0,0.0
2190.774,0.0,0.0,0.0,0.0
2194.631,0.0,0.0,0.0,0.0
2198.488,0.0,0.0,0.0,0.0
2202.345,0.0,0.0,0.0,0.0
2206.202,0.0,0.0,0.0,0.0
2210.059,0.0,0.0,0.0,0.0
2213.916,0.0,0.0,0.0,0.0
2217.773,0.0,0.0,0.0,0.0
2221.63,0.0,0.0,0.0,0.0
2225.487,0.0,0.0,0.0,0.0
2229.344,0.0,0.0,0.0,0.0
2233.201,0.0,0.0,0.0,0.0
2237.058,0.0,0.0,0.0,0.0
2240.915,0.0,0.0,0.0,0.0
2244.772,0.0,0.0,0.0,0.0
2248.629,0.0,0.0,0.0,0.0
2252.486,0.0,0.0,0.0,0.0
2256.343,0.0,0.0,0.0,0.0
2260.2,0.0,0.0,0.0,0.0
2264.057,0.0,0.0,0.0,0.0
2267.914,0.0,0.0,0.0,0.0
2271.771,0.0,0.0,0.0,0.0
2275.628,0.0,0.0,0.0,0.0
2279.485,0.0,0.0,0.0,0.0
2283.342,0.0,0.0,0.0,0.0
2287.199,0.0,0.0,0.0,0.0
2291.056,0.0,0.0,0.0,0.0
2294.913,0.0,0.0,0.0,0.0
2298.77,0.0,0.0,0.0,0.0
2302.627,0.0,0.0,0.0,0.0
2306.484,0.0,0.0,0.0,0.0
2310.341,0.0,0.0,0.0,0.0
2314.198,0.0,0.0,0.0,0.0
2318.055,0.0,0.0,0.0,0.0
2321.912,0.0,0.0,0.0,0.0
2325.769,0.0,0.0,0.0,0.0
2329.626,0.0,0.0,0.0,0.0
2333.483,0.0,0.0,0.0,0.0
2337.34,0.0,0.0,0.0,0.0
2341.197,0.0,0.0,0.0,0.0
2345.054,0.0,0.0,0.0,0.0
2348.911,0.0,0.0,0.0,0.0