Folder: Basalt_Carbonate_Baselines/Glass FTIR Baseline Share With Sarah 2023/Files from 1_19_23

File: 1630_Peaks_Baseline_removed.csv
Wavenumber,WD23MI02,WD33MI03,WD71AMI01,SH01MI11,SH01MI05,WD23MI03A,FI38MI01C,SH01MI12B,CV09EMI05,FI38MI01B,SH01MI12A,OK14MI07,OK14MI12,OK14MI01,WD35MI04A,OK14MI06C,FI45MI02,WD70MI03,Terry3MI03,WD70MI01A,WD35MI02,FI45MI06,WD35MI01,WD07MI01B,FI38MI05A,SH58MI01,SH63MI34,OK17MI05A,FI45MI04A,JFL30AMI12,SH63MI24
1400.09,0.00890504,0.00477517,0.0362671,0.008385,0.0053846,0.0248888,0.00638968,0.00807982,0.00938947,0.00543978,0.011019,0.0112425,0.00374133,0.00513928,0.00760772,0.00135815,0.0129276,0.00855703,0.00620073,0.0127192,0.00794104,0.0123042,0.0133497,0.00558377,0.00665762,0.00552155,0.00898315,0.00204469,0.00924173,0.011934,0.00472347
1415.518,0.00478944,0.00524109,0.0350007,0.00878274,0.00572001,0.0247197,0.00609275,0.00829794,0.00973041,0.00617951,0.00913173,0.0131704,0.00213082,0.00454296,0.00663917,0.00061764,0.0129656,0.00993841,0.00339066,0.0141143,0.00897564,0.0110818,0.0134925,0.00721622,0.00633108,0.00470515,0.00863543,0.00209839,0.010953,0.0103784,0.00558612
1430.946,0.0056193,0.00566071,0.0345602,0.00769774,0.00630487,0.0253321,0.00633393,0.00801904,0.00948957,0.00453314,0.0108187,0.0087933,0.00300137,0.00425101,0.00665158,0.000600476,0.0132676,0.0101301,0.00529386,0.0126642,0.00976827,0.0123102,0.012242,0.00611301,0.00446236,0.00621808,0.00944949,0.00125291,0.0116179,0.0112824,0.00553723
1446.374,0.00713417,0.00476243,0.0351967,0.00962191,0.00722073,0.0262388,0.0060777,0.00924657,0.00930684,0.00603306,0.0109672,0.00918972,0.00402627,0.0068821,0.00751225,0.00131897,0.0124553,0.00911739,0.00573027,0.0131491,0.00789551,0.0122982,0.013229,0.00752557,0.00691379,0.00599716,0.0092483,0.00196464,0.00930881,0.0128703,0.00549659
1461.802,0.00788968,0.00493833,0.0336533,0.00738273,0.00416993,0.0223578,0.00512584,0.00757916,0.00863513,0.00825242,0.010358,0.0118806,0.00116957,0.00430333,0.00548081,0.00187983,0.0104493,0.00749887,0.0038558,0.0128317,0.0081689,0.0108308,0.0122626,0.00406479,0.00548417,0.00430472,0.00781283,0.002163,0.00998783,0.00816377,0.00638248
1477.23,0.00233217,0.00451944,0.0328977,0.00985159,0.0026345,0.0207843,0.00542049,0.00250583,0.00689084,0.00529312,0.00997598,0.00649532,0.00399894,0.00366112,0.0078559,0.00170323,0.010408,0.00594677,0.00310201,0.0117289,0.00713972,0.0100553,0.00899411,0.00230099,0.00211035,0.00272776,0.005162,0.00103402,0.00918741,0.00762487,0.00794165
1492.658,0.00476557,0.00667811,0.0372785,0.012591,0.0057429,0.029048,0.00576567,0.00635911,0.00800631,0.0086253,0.0119627,0.0101507,0.00516954,0.00345332,0.00904274,0.00107226,0.0130397,0.00729782,0.0041154,0.0130593,0.00821552,0.0143663,0.0120713,0.00588085,0.00749366,0.00397123,0.00727069,0.00240069,0.0114066,0.0087228,0.00659445
1508.086,0.00495336,0.00604098,0.0386016,0.0143059,0.0063194,0.0331608,0.00857305,0.00747952,0.00972511,0.0117385,0.0113188,0.00592546,0.00229458,0.00364552,0.0089995,-2.54535e-05,0.0167431,0.00990736,0.00338672,0.012357,0.00856199,0.0174639,0.0113628,0.00643353,0.00715187,0.00509527,0.00656075,0.00369475,0.0182426,0.00983949,0.00521841
1523.514,0.00057046,0.0112899,0.0501436,0.0214438,0.00712407,0.0455707,0.0118695,0.0117426,0.0130148,0.0129655,0.0138669,0.0132369,0.00481642,0.00516753,0.0155241,0.000234452,0.0230243,0.0126962,0.00594304,0.0147869,0.0114951,0.0221568,0.0125986,0.0101886,0.00744681,0.00426367,0.0106936,0.00433976,0.0227678,0.0161093,0.00723448
1538.942,0.004849,0.0154264,0.0587723,0.024686,0.00832885,0.0589491,0.0148818,0.0165101,0.0169361,0.0179947,0.0182177,0.0125215,0.00662895,0.00861699,0.0191966,0.00142607,0.029946,0.017074,0.00410158,0.0191871,0.0171909,0.0330701,0.0203034,0.0108708,0.0114675,0.00726096,0.0125829,0.00486445,0.0283754,0.0190501,0.00612414
1554.37,0.00973943,0.0190515,0.0784771,0.0337486,0.015095,0.0807957,0.0195667,0.0208017,0.0226245,0.0237036,0.0252469,0.0186474,0.00745174,0.0121807,0.0243507,0.00210586,0.040882,0.0205737,0.00618568,0.0254536,0.0229174,0.0400509,0.0280107,0.0128433,0.0171636,0.00799263,0.0194491,0.00632375,0.0352403,0.0253501,0.00863262
1569.798,0.0145061,0.027487,0.105854,0.0441634,0.0222735,0.111032,0.0282492,0.030368,0.0277629,0.0333818,0.0367733,0.0282369,0.0123725,0.0157383,0.0359261,0.00498785,0.0542148,0.0258445,0.0115004,0.0373938,0.0294855,0.0526717,0.0389707,0.0195202,0.0194921,0.0134791,0.0263247,0.00919835,0.045812,0.0364703,0.0178014
1585.226,0.0295686,0.0368768,0.160654,0.0605362,0.0329923,0.163451,0.0413513,0.0424965,0.0405063,0.0456722,0.0581658,0.0437571,0.0200474,0.0252206,0.0490836,0.00798519,0.0785455,0.0390539,0.0182935,0.0603411,0.045222,0.0785814,0.0657137,0.0283789,0.0308848,0.0244946,0.0383806,0.0121949,0.0644201,0.0527093,0.0308045
1600.654,0.057568,0.061398,0.296921,0.105441,0.055893,0.279639,0.0738943,0.0808776,0.0778399,0.0759635,0.106876,0.0902362,0.0317079,0.0425552,0.0819768,0.0141136,0.139406,0.076253,0.0418314,0.113069,0.0803532,0.130289,0.122597,0.0556239,0.0598757,0.049022,0.077159,0.0200384,0.111968,0.103387,0.0556707
1616.082,0.122305,0.110326,0.592417,0.191357,0.109824,0.515756,0.143077,0.164323,0.16281,0.136227,0.2101,0.180457,0.0631048,0.0900769,0.153098,0.0272654,0.264959,0.160958,0.0917127,0.231403,0.157827,0.23946,0.252656,0.118255,0.115408,0.112492,0.162304,0.0403672,0.211845,0.219025,0.119946
1631.51,0.202147,0.161681,0.848884,0.280814,0.166966,0.75863,0.216463,0.255521,0.247294,0.197926,0.318753,0.288276,0.0966721,0.135037,0.22201,0.040823,0.391777,0.249292,0.142036,0.355284,0.242749,0.349371,0.399787,0.18223,0.174964,0.180112,0.249673,0.0617319,0.309679,0.338397,0.192913
1646.938,0.203943,0.159032,0.780733,0.274869,0.155028,0.762992,0.215708,0.251335,0.228563,0.194872,0.30559,0.263774,0.0899421,0.13027,0.217424,0.0379199,0.384159,0.234481,0.129813,0.336625,0.234953,0.342737,0.39274,0.177643,0.168168,0.172734,0.222661,0.0589575,0.301356,0.325889,0.171721
1662.366,0.142027,0.114437,0.524948,0.191747,0.102188,0.564375,0.156287,0.169819,0.145422,0.13845,0.211181,0.169296,0.0587502,0.086499,0.158155,0.0250767,0.273883,0.151835,0.0825397,0.223974,0.15938,0.244335,0.264182,0.123264,0.114239,0.117673,0.134507,0.0382402,0.213726,0.21311,0.105477
1677.794,0.0778542,0.0627029,0.273205,0.110751,0.0517391,0.330521,0.0962748,0.086231,0.0703238,0.0808397,0.123867,0.0869654,0.0336617,0.0436367,0.0925999,0.0140857,0.152169,0.0742802,0.0407362,0.120432,0.0806849,0.140003,0.143701,0.063441,0.0602467,0.0636516,0.0627082,0.0197374,0.121799,0.106546,0.0598004
1693.222,0.03622,0.0323181,0.124042,0.0598101,0.0212433,0.173779,0.0544295,0.0377167,0.0255324,0.0436347,0.0652698,0.0418916,0.0186829,0.0163397,0.0481672,0.00807098,0.0746323,0.0275766,0.0172581,0.0595708,0.0321329,0.0686777,0.069428,0.0262929,0.0282353,0.0326056,0.0228748,0.00946693,0.0595044,0.0448964,0.0361486
1708.65,0.016838,0.0149082,0.0530617,0.0308636,0.0114742,0.0924338,0.0336339,0.011211,0.00564386,0.024497,0.0363233,0.022118,0.00947331,0.00441767,0.0287302,0.00565858,0.035276,0.00634676,0.00798879,0.027175,0.00748505,0.0298368,0.028963,0.0107438,0.0178415,0.0203332,0.00432477,0.00535805,0.025412,0.0157188,0.0210415
1724.078,0.00914946,0.0063011,0.024621,0.0205052,0.0112827,0.0566767,0.0243607,0.00535906,-0.00093361,0.0147842,0.0237758,0.0210876,0.0080237,0.00355606,0.0180958,0.00502372,0.0167035,-0.0014056,0.00328616,0.0132347,-0.00268725,0.0134638,0.0148229,0.0031191,0.0104908,0.0121918,0.000570908,0.00348307,0.0108807,0.00404263,0.013501
1739.506,0.00465265,-0.000600815,0.0100028,0.0161358,0.00640531,0.0366454,0.0171252,0.00408903,-0.00368504,0.0117188,0.0126204,0.0147674,0.00750326,0.00169753,0.0095265,0.00374851,0.00747644,-0.00411301,0.00136722,0.00978432,-0.00675307,0.00549761,0.00934349,0.000692391,0.00373813,0.0114296,-0.00177831,0.00123131,0.00539695,-0.00111311,0.0133273
1754.934,0.00253084,-0.000985317,0.00175496,0.00630321,0.00242456,0.0268692,0.0109997,0.00209396,-0.00625585,0.00767585,0.00785736,0.00819627,0.00369186,-0.00126683,0.00802753,0.0010873,0.00283986,-0.00527514,-0.000146803,0.00607256,-0.00523004,-0.000939123,0.00360243,0.00316262,0.0047027,0.0118225,-0.0029759,-0.000839098,0.00216401,-0.00332913,0.0120211
1770.362,0.00415278,-0.000458697,0.00119712,0.00320645,0.000105601,0.0199678,0.00855176,0.00332797,-0.00444983,0.00273294,0.00339722,0.00532868,8.02026e-05,0.000993975,0.0053388,-2.51002e-06,0.00101714,-0.00304512,-0.000805867,-0.000108407,-0.0037697,-0.00206929,-3.26275e-06,0.00335251,0.00590519,0.0058488,-0.001725,-0.000179446,0.00166318,-0.00302331,0.0047748
1785.79,0.00103679,-0.0021099,0.000661597,0.00212022,0.000482503,0.00686048,0.00488034,0.000817593,-0.00220611,-0.000770099,0.000233312,0.00302441,0.000113695,0.000112939,0.000575869,2.61071e-05,9.36706e-05,-0.00154218,0.00014425,-0.000455915,-0.00315283,-0.00120942,-0.000187457,-6.22795e-06,0.000894485,0.0036002,-0.000795912,-0.000104489,0.00109719,-0.00147906,-0.000818225
1801.218,-0.000632977,-0.00154299,0.000408142,-0.00149132,0.00212646,-0.00360318,-8.49088e-05,-0.00252578,-0.000676699,-0.000372822,0.00120661,0.000865865,0.000275054,-0.000964598,-0.000462692,0.000737302,-0.000273501,-0.000675261,9.87619e-05,0.00178365,-0.00116454,-0.000641999,0.000397037,-0.000252188,-0.00280832,0.000989296,0.000110314,-0.000562271,-0.000678044,4.90715e-05,0.00044927
1816.646,-0.000692673,0.0010458,-0.00121143,-0.000459593,0.00272254,-0.00409695,-0.001453,-0.000791285,-0.000475863,-0.000314079,-0.000646619,0.000616031,-0.00064957,-0.000990923,0.00103958,0.00105321,-0.00037547,-0.000446237,-7.12067e-05,-0.000120067,0.000426026,-0.00185702,-0.00139339,-0.000766826,-7.5962e-05,-0.00221098,-7.79071e-05,-0.00123419,-0.000940821,-0.000562327,0.0025211
1818.574,-0.000159487,0.000970537,-0.0014064,5.19166e-05,0.00245206,-0.00426467,-0.00125409,-0.000579484,-0.000511791,-0.000162729,-0.00104915,0.000657355,-0.000712849,-0.000795314,0.000894141,0.00108543,-0.000386153,-0.000558063,-0.00024415,-0.000675869,0.000352142,-0.00215912,-0.0015582,-0.00106271,0.000390107,-0.00214458,-0.000369227,-0.00115429,-0.00134437,-0.000638943,0.00251663

File: CO2_free_baselines_Water_removed_5-19-21.csv
Wavenumber,WD23MI02,WD33MI03,SH55MI02,SH54MI11,SH63MI02,WD71AMI01,SH63MI10,SH01MI11,SH01MI05,SH63MI39,WD23MI03A,FI38MI01C,SH01MI12B,CV09EMI05,FI38MI01B,SH01MI12A,OK14MI07,OK14MI12,AK96MI13,OK14MI01,WD35MI04A,SH63MI43,OK14MI06C,Terry3MI04A,FI45MI02,AK96MI08,WD70MI03,Terry3MI03,JFL19BMI11,WD12MI04A,FI45MI05,WD70MI01A,WD35MI02,WD07MI01A,FI45MI06,OK14MI08,WD70MI01B,WD12MI06,WD35MI01,OK14MI09,WD07MI01B,SH63MI53,FI38MI05A,SH58MI01,SH63MI34,SH01MI21,OK17MI05A,SH63MI22,FI45MI04A,SH63MI27,JFL30AMI12,VS73MI02,SH63MI25,SH63MI31,SH63MI24
1276.666,1.14474,0.809137,0.901339,0.680846,1.64411,1.36309,0.822427,0.911729,0.595285,1.0346,2.14877,0.510849,1.18558,0.614533,0.520746,1.0734,1.70304,0.825643,0.735252,0.892139,0.823824,0.838836,0.405243,0.509925,0.870219,0.661414,0.626974,0.935146,0.926324,0.940512,0.793956,0.758756,0.889702,0.826819,0.87083,0.959792,0.756172,1.07691,0.941017,1.11017,0.947907,0.64279,0.785106,1.15512,1.11597,1.01806,0.563135,0.594477,0.882595,0.779575,0.970741,0.927981,0.881958,1.05484,0.950888
1330.664,0.765925,0.522567,0.495873,0.379331,1.01311,0.880346,0.495582,0.634339,0.378241,0.578738,1.49261,0.245065,0.822603,0.381981,0.272887,0.721233,1.09145,0.525375,0.433445,0.593148,0.546986,0.525317,0.25619,0.242146,0.589957,0.399099,0.41384,0.594656,0.60764,0.61181,0.530415,0.49756,0.632515,0.544182,0.574995,0.582788,0.489847,0.688079,0.655749,0.709057,0.613964,0.457071,0.511043,0.751921,0.688558,0.602449,0.364442,0.332237,0.565276,0.488723,0.611666,0.557041,0.524162,0.651206,0.590633
1384.662,0.618548,0.423486,0.403449,0.29915,0.807329,0.700885,0.389304,0.54442,0.315044,0.47333,1.23469,0.151761,0.677506,0.31278,0.193275,0.612582,0.890464,0.420811,0.352146,0.474242,0.454149,0.419229,0.212983,0.163861,0.479196,0.313968,0.348708,0.492223,0.492379,0.517208,0.42974,0.411734,0.540311,0.448975,0.475603,0.452245,0.403516,0.574626,0.548171,0.585569,0.501939,0.420679,0.419038,0.631887,0.561569,0.504772,0.305285,0.263224,0.468037,0.396148,0.498445,0.434169,0.426441,0.513792,0.476043
1438.66,0.546302,0.389545,0.361726,0.263368,0.685552,0.638789,0.342487,0.50935,0.291912,0.431044,1.12978,0.117883,0.619888,0.28658,0.168187,0.56042,0.797547,0.373765,0.308086,0.418357,0.417275,0.366686,0.19413,0.135037,0.441768,0.269615,0.328146,0.449296,0.451235,0.483665,0.388942,0.380075,0.503936,0.412992,0.443832,0.388693,0.374394,0.531766,0.50617,0.533166,0.461321,0.40099,0.386507,0.573194,0.511265,0.458113,0.28323,0.233581,0.438812,0.344277,0.45775,0.382171,0.377858,0.448833,0.417726
1492.658,0.511008,0.376516,0.339816,0.244016,0.618774,0.617275,0.316093,0.495259,0.281491,0.405157,1.08734,0.108958,0.593411,0.273964,0.158513,0.530657,0.745201,0.347301,0.277211,0.389939,0.404136,0.333055,0.185254,0.119037,0.427393,0.246486,0.320416,0.423895,0.429494,0.464942,0.371492,0.367801,0.488587,0.395288,0.43278,0.362004,0.36629,0.510681,0.491682,0.505465,0.44338,0.38514,0.374942,0.542869,0.485003,0.426712,0.27067,0.216166,0.430594,0.31992,0.439171,0.360186,0.344855,0.409184,0.38352
1546.656,0.494888,0.368656,0.328203,0.237821,0.594878,0.600586,0.311294,0.488442,0.276058,0.398204,1.06559,0.108279,0.575555,0.260334,0.155698,0.516785,0.723974,0.339173,0.260677,0.375858,0.398867,0.318793,0.183508,0.113381,0.418879,0.242009,0.31002,0.411852,0.418948,0.448806,0.360275,0.364147,0.47463,0.382673,0.422711,0.350606,0.360553,0.492712,0.485952,0.495149,0.435558,0.37401,0.37217,0.531328,0.471703,0.411885,0.264568,0.208359,0.423352,0.317574,0.426461,0.354948,0.330724,0.392135,0.375316
1600.654,0.485567,0.3697,0.327158,0.232216,0.576612,0.599216,0.303949,0.482907,0.275111,0.391054,1.06006,0.108406,0.572603,0.25861,0.149295,0.505874,0.706073,0.329015,0.249679,0.371853,0.398997,0.306895,0.181127,0.110066,0.418909,0.233756,0.311546,0.403416,0.415118,0.448447,0.358912,0.3619,0.472854,0.377162,0.425109,0.354288,0.36285,0.491139,0.48475,0.485781,0.434173,0.361203,0.371626,0.52355,0.464439,0.399036,0.258861,0.203927,0.428704,0.307211,0.42554,0.353705,0.318674,0.379392,0.359685
1654.652,0.481294,0.369396,0.319965,0.22395,0.561441,0.599196,0.297306,0.480076,0.272793,0.376275,1.06353,0.106866,0.57114,0.254732,0.148562,0.493776,0.69117,0.322485,0.236992,0.37256,0.400101,0.295403,0.179448,0.106305,0.420896,0.229445,0.310089,0.395062,0.406874,0.444152,0.357571,0.360923,0.473003,0.3723,0.426345,0.355112,0.364283,0.487509,0.487483,0.476897,0.433155,0.346423,0.371757,0.515275,0.457825,0.382242,0.253986,0.195347,0.430825,0.300743,0.422381,0.353578,0.305136,0.365584,0.34667
1708.65,0.472237,0.365246,0.316414,0.222969,0.556145,0.58575,0.298525,0.473238,0.269487,0.377337,1.04864,0.108006,0.559156,0.244324,0.14269,0.486987,0.679739,0.318385,0.228136,0.365944,0.397846,0.289598,0.179285,0.103992,0.414503,0.227965,0.302014,0.387339,0.402405,0.432994,0.351079,0.359388,0.461883,0.362381,0.419612,0.355569,0.36015,0.473894,0.483505,0.471266,0.428557,0.336088,0.370795,0.510764,0.448712,0.374111,0.248588,0.192918,0.427284,0.301887,0.414478,0.355138,0.299649,0.358825,0.344111
1762.648,0.45926,0.353189,0.31435,0.22647,0.56733,0.553012,0.307649,0.457923,0.26207,0.388607,1.01154,0.108516,0.534117,0.224606,0.126067,0.485048,0.669731,0.315722,0.223946,0.354415,0.389806,0.290753,0.179424,0.100308,0.39632,0.229156,0.283461,0.377356,0.396706,0.411114,0.338142,0.355434,0.437363,0.344038,0.400972,0.357281,0.346479,0.445147,0.470739,0.465052,0.416196,0.326833,0.365025,0.508593,0.432639,0.371024,0.239388,0.194117,0.413284,0.310674,0.39779,0.358956,0.302361,0.359459,0.352195
1816.646,0.44114,0.334975,0.302873,0.219205,0.565206,0.514832,0.307608,0.436368,0.249469,0.381012,0.966596,0.103424,0.505172,0.20168,0.102662,0.474147,0.644436,0.304906,0.212346,0.340385,0.376744,0.283364,0.175213,0.0888408,0.374553,0.223942,0.261892,0.358627,0.380684,0.384031,0.321861,0.34625,0.410891,0.320013,0.37787,0.353146,0.328921,0.410098,0.454558,0.447075,0.396699,0.310038,0.352856,0.496569,0.406453,0.353605,0.224277,0.186247,0.393582,0.310929,0.374476,0.356143,0.29378,0.349118,0.3493
1870.644,0.411158,0.316902,0.281703,0.201522,0.533836,0.473767,0.290225,0.409367,0.234585,0.353619,0.915631,0.0875685,0.47708,0.183023,0.0730539,0.452831,0.598672,0.283521,0.186784,0.324622,0.359574,0.264847,0.165316,0.0717854,0.351204,0.201546,0.244863,0.331684,0.362308,0.360427,0.305038,0.330686,0.387257,0.29613,0.359309,0.344406,0.309216,0.377996,0.433536,0.422417,0.370484,0.28727,0.333009,0.471216,0.371266,0.322688,0.205614,0.170076,0.375539,0.290205,0.349735,0.341447,0.274241,0.323012,0.321974
1924.641,0.378417,0.29504,0.256633,0.177978,0.495229,0.431318,0.266866,0.377058,0.215656,0.319203,0.860148,0.0673028,0.447427,0.161728,0.039086,0.423341,0.542809,0.253928,0.162452,0.304829,0.338672,0.240144,0.152635,0.0488417,0.327241,0.175505,0.22667,0.298409,0.338166,0.333153,0.286273,0.308286,0.362604,0.268284,0.336985,0.332229,0.28671,0.341793,0.406827,0.380281,0.341442,0.25967,0.309453,0.43875,0.330377,0.283556,0.182573,0.151082,0.356407,0.263231,0.320817,0.323187,0.245298,0.292204,0.288205
[...]
2032.637,0.319596,0.255329,0.199211,0.122709,0.399443,0.348171,0.20754,0.31891,0.179741,0.237333,0.758573,0.0270819,0.39614,0.122698,-0.0219654,0.359224,0.421525,0.18962,0.106795,0.266193,0.299878,0.180304,0.124815,0.000487423,0.283482,0.121746,0.194612,0.23171,0.283645,0.282914,0.251568,0.258638,0.323418,0.214817,0.29637,0.304333,0.247256,0.278728,0.358422,0.290666,0.290024,0.204049,0.264191,0.370393,0.247095,0.196631,0.13781,0.105747,0.321477,0.200906,0.266445,0.276714,0.176532,0.222001,0.208387
2086.635,0.303571,0.245041,0.190755,0.109686,0.378448,0.332281,0.192128,0.303341,0.1712,0.215757,0.732413,0.0160289,0.385108,0.115197,-0.0388601,0.339242,0.392696,0.175035,0.0904479,0.260172,0.291734,0.16446,0.11923,-0.00981749,0.272559,0.109675,0.189206,0.215576,0.268245,0.274681,0.240898,0.247497,0.313872,0.197946,0.287278,0.302529,0.241944,0.267517,0.352897,0.273531,0.276013,0.186462,0.254925,0.354947,0.229927,0.174735,0.125986,0.0933726,0.313236,0.18511,0.256439,0.268346,0.159955,0.200407,0.184499
2140.633,0.296315,0.239694,0.190977,0.103024,0.370265,0.328379,0.184676,0.294261,0.167032,0.205729,0.723043,0.00690693,0.378774,0.112434,-0.0476235,0.323606,0.376246,0.1664,0.0847235,0.259218,0.289116,0.155856,0.116872,-0.0146244,0.270402,0.105662,0.187634,0.205342,0.256878,0.271516,0.236223,0.243743,0.312556,0.188034,0.285479,0.305665,0.241639,0.264458,0.35344,0.268205,0.271032,0.172911,0.250811,0.346088,0.222683,0.163197,0.118802,0.086446,0.311847,0.176152,0.25135,0.270853,0.151354,0.188515,0.169477
2194.631,0.293417,0.240125,0.191758,0.0982378,0.363897,0.332,0.179986,0.29213,0.167674,0.198181,0.731542,0.000352511,0.376262,0.112704,-0.0473401,0.313197,0.366809,0.161705,0.0802336,0.263407,0.291942,0.149277,0.116457,-0.0154031,0.274316,0.103981,0.188649,0.200071,0.247098,0.272226,0.236596,0.246704,0.316629,0.186313,0.290585,0.310342,0.244851,0.26673,0.358509,0.266419,0.27121,0.162035,0.25083,0.34063,0.221277,0.154823,0.115534,0.0820722,0.316387,0.169847,0.249947,0.274685,0.145433,0.17827,0.157526
2248.629,0.294537,0.245365,0.192261,0.0958292,0.359268,0.337839,0.178037,0.295875,0.168624,0.193029,0.752913,-0.00431635,0.377415,0.114479,-0.0397325,0.308881,0.363185,0.160787,0.0757077,0.271747,0.298906,0.144607,0.117521,-0.0126738,0.282003,0.103024,0.191887,0.20003,0.240724,0.27662,0.240547,0.255078,0.325186,0.191358,0.300598,0.317977,0.251011,0.273619,0.365982,0.265092,0.276741,0.152549,0.254109,0.339248,0.225541,0.149779,0.115855,0.0794276,0.325846,0.166857,0.253008,0.278142,0.142865,0.170384,0.147501
2302.627,0.296813,0.250922,0.192701,0.0947173,0.354228,0.342939,0.177133,0.301597,0.17025,0.189018,0.775912,-0.00933908,0.379697,0.116659,-0.027362,0.307115,0.362931,0.161672,0.0713573,0.282049,0.307055,0.139381,0.119764,-0.00861326,0.288746,0.102099,0.19351,0.201022,0.233149,0.279122,0.243966,0.261712,0.334699,0.197997,0.310291,0.321487,0.255394,0.27926,0.372572,0.260715,0.282027,0.14645,0.259478,0.338404,0.231083,0.146453,0.118123,0.0757835,0.336188,0.164678,0.256675,0.285528,0.140977,0.16466,0.142794
2348.911,0.294658,0.247706,0.189532,0.0932117,0.346975,0.347223,0.176557,0.30538,0.16588,0.185717,0.785777,-0.0181074,0.378668,0.116737,-0.0146994,0.303926,0.364185,0.162021,0.0650812,0.286991,0.3098,0.133185,0.121061,-0.00639117,0.288076,0.102913,0.188583,0.197949,0.220665,0.274484,0.243809,0.260061,0.337627,0.19817,0.312754,0.317735,0.253417,0.276836,0.37742,0.252871,0.280259,0.14715,0.258645,0.334385,0.231585,0.143946,0.119149,0.068662,0.340544,0.163428,0.254071,0.311781,0.138165,0.158124,0.141496